n_samples,gyr_x,gyr_y,gyr_z,acc_x,acc_y,acc_z
0,-0.6103515625,-0.30517578125,0.06103515625,10.332114257812501,-0.5795947265625,0.51732421875
1,-0.54931640625,-0.3662109375,0.1220703125,10.336904296875,-0.5604345703125,0.5077441406250001
2,-0.54931640625,-0.3662109375,0.06103515625,10.293793945312501,-0.5604345703125,0.5269042968750001
3,-0.67138671875,-0.3662109375,0.0,10.279423828125001,-0.55564453125,0.5125341796875
4,-0.6103515625,-0.3662109375,0.06103515625,10.293793945312501,-0.5316943359375,0.4981640625
5,-0.6103515625,-0.3662109375,0.06103515625,10.32732421875,-0.51732421875,0.4981640625
6,-0.54931640625,-0.3662109375,0.06103515625,10.3512744140625,-0.5269042968750001,0.488583984375
7,-0.54931640625,-0.3662109375,0.1220703125,10.3033740234375,-0.5460644531250001,0.48379394531250003
8,-0.6103515625,-0.42724609375,0.06103515625,10.293793945312501,-0.536484375,0.45026367187500005
9,-0.54931640625,-0.42724609375,0.06103515625,10.2842138671875,-0.5316943359375,0.488583984375
10,-0.54931640625,-0.30517578125,0.06103515625,10.3225341796875,-0.55564453125,0.49337402343750003
11,-0.54931640625,-0.3662109375,0.1220703125,10.32732421875,-0.5604345703125,0.488583984375
12,-0.6103515625,-0.3662109375,0.06103515625,10.298583984375,-0.5652246093750001,0.5077441406250001
13,-0.6103515625,-0.30517578125,0.0,10.293793945312501,-0.5460644531250001,0.5412744140625
14,-0.6103515625,-0.3662109375,0.0,10.3129541015625,-0.55564453125,0.5221142578125
15,-0.6103515625,-0.244140625,0.06103515625,10.308164062500001,-0.5604345703125,0.5077441406250001
16,-0.67138671875,-0.3662109375,0.0,10.336904296875,-0.536484375,0.5269042968750001
17,-0.54931640625,-0.3662109375,0.0,10.3225341796875,-0.5604345703125,0.5221142578125
18,-0.48828125,-0.3662109375,0.1220703125,10.2842138671875,-0.5891748046875,0.5221142578125
19,-0.54931640625,-0.3662109375,0.1220703125,10.308164062500001,-0.5700146484375,0.5029541015625
20,-0.6103515625,-0.30517578125,0.0,10.332114257812501,-0.5604345703125,0.5029541015625
21,-0.67138671875,-0.3662109375,0.06103515625,10.317744140625,-0.5460644531250001,0.5125341796875
22,-0.6103515625,-0.30517578125,0.06103515625,10.26984375,-0.5508544921875,0.5125341796875
23,-0.54931640625,-0.30517578125,0.06103515625,10.28900390625,-0.55564453125,0.5029541015625
24,-0.54931640625,-0.3662109375,0.1220703125,10.32732421875,-0.5460644531250001,0.5029541015625
25,-0.54931640625,-0.30517578125,0.06103515625,10.3033740234375,-0.51732421875,0.48379394531250003
26,-0.6103515625,-0.30517578125,0.06103515625,10.317744140625,-0.5269042968750001,0.488583984375
27,-0.6103515625,-0.3662109375,0.0,10.32732421875,-0.5460644531250001,0.4742138671875
28,-0.6103515625,-0.3662109375,0.06103515625,10.3129541015625,-0.5460644531250001,0.49337402343750003
29,-0.54931640625,-0.42724609375,0.06103515625,10.3129541015625,-0.536484375,0.48379394531250003
30,-0.54931640625,-0.3662109375,0.1220703125,10.32732421875,-0.55564453125,0.47900390625
31,-0.54931640625,-0.42724609375,0.06103515625,10.298583984375,-0.5460644531250001,0.51732421875
32,-0.6103515625,-0.42724609375,0.06103515625,10.317744140625,-0.5604345703125,0.536484375
33,-0.54931640625,-0.42724609375,0.06103515625,10.3033740234375,-0.5508544921875,0.536484375
34,-0.48828125,-0.30517578125,0.06103515625,10.3129541015625,-0.536484375,0.5412744140625
35,-0.54931640625,-0.3662109375,0.1220703125,10.336904296875,-0.5652246093750001,0.5269042968750001
36,-0.54931640625,-0.30517578125,0.06103515625,10.317744140625,-0.5604345703125,0.5316943359375
37,-0.6103515625,-0.3662109375,0.06103515625,10.28900390625,-0.5652246093750001,0.5029541015625
38,-0.54931640625,-0.3662109375,0.0,10.317744140625,-0.55564453125,0.5029541015625
39,-0.54931640625,-0.3662109375,0.0,10.308164062500001,-0.55564453125,0.5412744140625
40,-0.54931640625,-0.30517578125,0.18310546875,10.308164062500001,-0.55564453125,0.5508544921875
41,-0.54931640625,-0.3662109375,0.1220703125,10.317744140625,-0.5460644531250001,0.5125341796875
42,-0.67138671875,-0.3662109375,0.0,10.308164062500001,-0.51732421875,0.4981640625
43,-0.6103515625,-0.3662109375,0.0,10.308164062500001,-0.536484375,0.4742138671875
44,-0.54931640625,-0.30517578125,0.06103515625,10.32732421875,-0.5316943359375,0.47900390625
45,-0.54931640625,-0.3662109375,0.06103515625,10.317744140625,-0.5316943359375,0.488583984375
46,-0.54931640625,-0.3662109375,0.06103515625,10.317744140625,-0.5508544921875,0.4981640625
47,-0.6103515625,-0.3662109375,0.0,10.298583984375,-0.5412744140625,0.49337402343750003
48,-0.6103515625,-0.3662109375,0.0,10.28900390625,-0.5508544921875,0.5077441406250001
49,-0.54931640625,-0.42724609375,0.06103515625,10.32732421875,-0.5795947265625,0.5125341796875
50,-0.54931640625,-0.42724609375,0.06103515625,10.3129541015625,-0.5700146484375,0.5125341796875
51,-0.67138671875,-0.42724609375,0.0,10.308164062500001,-0.55564453125,0.5125341796875
52,-0.6103515625,-0.42724609375,0.1220703125,10.308164062500001,-0.5748046875,0.51732421875
53,-0.54931640625,-0.3662109375,0.1220703125,10.293793945312501,-0.5652246093750001,0.51732421875
54,-0.54931640625,-0.3662109375,0.1220703125,10.336904296875,-0.5652246093750001,0.51732421875
55,-0.6103515625,-0.3662109375,0.06103515625,10.346484375000001,-0.5604345703125,0.5269042968750001
56,-0.54931640625,-0.48828125,0.1220703125,10.317744140625,-0.5700146484375,0.5077441406250001
57,-0.6103515625,-0.3662109375,0.0,10.3033740234375,-0.5604345703125,0.49337402343750003
58,-0.54931640625,-0.30517578125,0.0,10.279423828125001,-0.536484375,0.4981640625
59,-0.54931640625,-0.3662109375,0.06103515625,10.298583984375,-0.5316943359375,0.5125341796875
60,-0.6103515625,-0.3662109375,0.06103515625,10.3033740234375,-0.5508544921875,0.51732421875
61,-0.6103515625,-0.3662109375,0.06103515625,10.32732421875,-0.5316943359375,0.5029541015625
62,-0.6103515625,-0.30517578125,0.06103515625,10.28900390625,-0.5412744140625,0.47900390625
63,-0.6103515625,-0.3662109375,0.1220703125,10.298583984375,-0.5508544921875,0.4981640625
64,-0.6103515625,-0.30517578125,0.0,10.3033740234375,-0.5508544921875,0.48379394531250003
65,-0.67138671875,-0.30517578125,0.0,10.308164062500001,-0.55564453125,0.47900390625
66,-0.6103515625,-0.3662109375,0.06103515625,10.293793945312501,-0.5700146484375,0.49337402343750003
67,-0.54931640625,-0.30517578125,0.1220703125,10.3129541015625,-0.55564453125,0.5269042968750001
68,-0.6103515625,-0.3662109375,0.06103515625,10.293793945312501,-0.5412744140625,0.4981640625
69,-0.6103515625,-0.244140625,0.0,10.28900390625,-0.5748046875,0.51732421875
70,-0.6103515625,-0.3662109375,0.0,10.3129541015625,-0.5700146484375,0.5269042968750001
71,-0.48828125,-0.42724609375,0.06103515625,10.3129541015625,-0.5700146484375,0.5269042968750001
72,-0.6103515625,-0.244140625,0.0,10.293793945312501,-0.5652246093750001,0.5700146484375
73,-0.6103515625,-0.30517578125,0.06103515625,10.3033740234375,-0.5604345703125,0.5221142578125
74,-0.54931640625,-0.3662109375,0.06103515625,10.28900390625,-0.55564453125,0.4646337890625
75,-0.6103515625,-0.3662109375,0.1220703125,10.28900390625,-0.55564453125,0.5029541015625
76,-0.6103515625,-0.3662109375,0.1220703125,10.32732421875,-0.5460644531250001,0.4742138671875
77,-0.6103515625,-0.3662109375,0.06103515625,10.3416943359375,-0.536484375,0.4550537109375
78,-0.6103515625,-0.3662109375,0.0,10.3416943359375,-0.55564453125,0.488583984375
79,-0.6103515625,-0.3662109375,0.0,10.3033740234375,-0.55564453125,0.5029541015625
80,-0.6103515625,-0.30517578125,0.0,10.279423828125001,-0.5316943359375,0.45984375
81,-0.54931640625,-0.3662109375,0.0,10.32732421875,-0.5269042968750001,0.48379394531250003
82,-0.54931640625,-0.3662109375,0.06103515625,10.317744140625,-0.5460644531250001,0.5125341796875
83,-0.6103515625,-0.3662109375,0.0,10.3129541015625,-0.5316943359375,0.48379394531250003
84,-0.6103515625,-0.42724609375,0.06103515625,10.308164062500001,-0.5269042968750001,0.5221142578125
85,-0.54931640625,-0.30517578125,0.06103515625,10.3033740234375,-0.5412744140625,0.4981640625
86,-0.6103515625,-0.30517578125,0.0,10.332114257812501,-0.5652246093750001,0.49337402343750003
87,-0.48828125,-0.3662109375,0.0,10.32732421875,-0.5604345703125,0.5316943359375
88,-0.54931640625,-0.30517578125,0.0,10.298583984375,-0.5604345703125,0.5460644531250001
89,-0.6103515625,-0.30517578125,0.06103515625,10.3129541015625,-0.5604345703125,0.536484375
90,-0.54931640625,-0.3662109375,0.06103515625,10.28900390625,-0.5700146484375,0.5029541015625
91,-0.6103515625,-0.3662109375,0.06103515625,10.25068359375,-0.5604345703125,0.49337402343750003
92,-0.6103515625,-0.42724609375,0.1220703125,10.346484375000001,-0.5508544921875,0.5077441406250001
93,-0.6103515625,-0.48828125,0.1220703125,10.427915039062501,-0.5604345703125,0.4981640625
94,-0.54931640625,-0.30517578125,0.0,10.360854492187501,-0.5508544921875,0.4981640625
95,-0.54931640625,-0.30517578125,0.0,10.241103515625001,-0.5269042968750001,0.536484375
96,-0.54931640625,-0.3662109375,0.0,10.2363134765625,-0.5508544921875,0.5269042968750001
97,-0.6103515625,-0.3662109375,0.06103515625,10.32732421875,-0.5412744140625,0.4646337890625
98,-0.6103515625,-0.30517578125,0.1220703125,10.375224609375001,-0.536484375,0.488583984375
99,-0.67138671875,-0.42724609375,0.0,10.3848046875,-0.5412744140625,0.47900390625
100,-0.67138671875,-0.3662109375,-0.06103515625,10.298583984375,-0.5460644531250001,0.4646337890625
101,-0.6103515625,-0.3662109375,0.06103515625,10.28900390625,-0.5460644531250001,0.4742138671875
102,-0.48828125,-0.30517578125,0.06103515625,10.308164062500001,-0.5508544921875,0.4742138671875
103,-0.54931640625,-0.3662109375,0.0,10.3129541015625,-0.5652246093750001,0.488583984375
104,-0.67138671875,-0.3662109375,0.1220703125,10.3416943359375,-0.5795947265625,0.5029541015625
105,-0.54931640625,-0.3662109375,0.18310546875,10.317744140625,-0.5795947265625,0.51732421875
106,-0.67138671875,-0.3662109375,0.1220703125,10.308164062500001,-0.5700146484375,0.5125341796875
107,-0.6103515625,-0.42724609375,0.06103515625,10.260263671875,-0.5700146484375,0.5604345703125
108,-0.6103515625,-0.42724609375,0.06103515625,10.293793945312501,-0.5748046875,0.536484375
109,-0.67138671875,-0.30517578125,0.1220703125,10.356064453125,-0.5700146484375,0.5269042968750001
110,-0.6103515625,-0.30517578125,0.1220703125,10.356064453125,-0.5604345703125,0.5221142578125
111,-0.6103515625,-0.30517578125,0.0,10.308164062500001,-0.5604345703125,0.49337402343750003
112,-0.54931640625,-0.3662109375,0.06103515625,10.26984375,-0.536484375,0.4981640625
113,-0.6103515625,-0.3662109375,0.1220703125,10.293793945312501,-0.536484375,0.4981640625
114,-0.6103515625,-0.42724609375,0.06103515625,10.3512744140625,-0.5508544921875,0.4981640625
115,-0.67138671875,-0.48828125,0.06103515625,10.356064453125,-0.5412744140625,0.469423828125
116,-0.6103515625,-0.30517578125,0.0,10.308164062500001,-0.536484375,0.488583984375
117,-0.54931640625,-0.3662109375,0.06103515625,10.26984375,-0.5412744140625,0.488583984375
118,-0.54931640625,-0.42724609375,0.1220703125,10.3129541015625,-0.5508544921875,0.4981640625
119,-0.6103515625,-0.42724609375,0.1220703125,10.36564453125,-0.5269042968750001,0.4742138671875
120,-0.67138671875,-0.3662109375,0.06103515625,10.332114257812501,-0.5412744140625,0.488583984375
121,-0.6103515625,-0.3662109375,0.0,10.2842138671875,-0.5700146484375,0.488583984375
122,-0.67138671875,-0.42724609375,0.06103515625,10.3129541015625,-0.5460644531250001,0.536484375
123,-0.6103515625,-0.42724609375,0.1220703125,10.3225341796875,-0.5460644531250001,0.5269042968750001
124,-0.6103515625,-0.3662109375,0.06103515625,10.336904296875,-0.5652246093750001,0.5412744140625
125,-0.6103515625,-0.3662109375,0.0,10.32732421875,-0.5460644531250001,0.5412744140625
126,-0.6103515625,-0.3662109375,0.0,10.28900390625,-0.5700146484375,0.5269042968750001
127,-0.6103515625,-0.42724609375,0.06103515625,10.293793945312501,-0.55564453125,0.4550537109375
128,-0.48828125,-0.30517578125,0.06103515625,10.3129541015625,-0.5795947265625,0.5316943359375
129,-0.6103515625,-0.3662109375,0.06103515625,10.3033740234375,-0.5652246093750001,0.49337402343750003
130,-0.732421875,-0.3662109375,0.06103515625,10.28900390625,-0.5508544921875,0.4981640625
131,-0.6103515625,-0.42724609375,0.1220703125,10.28900390625,-0.5460644531250001,0.5029541015625
132,-0.48828125,-0.30517578125,0.0,10.3129541015625,-0.55564453125,0.488583984375
133,-0.54931640625,-0.30517578125,0.0,10.308164062500001,-0.5412744140625,0.488583984375
134,-0.54931640625,-0.3662109375,0.0,10.3129541015625,-0.55564453125,0.488583984375
135,-0.48828125,-0.3662109375,0.0,10.336904296875,-0.5412744140625,0.5029541015625
136,-0.54931640625,-0.3662109375,0.06103515625,10.332114257812501,-0.536484375,0.488583984375
137,-0.48828125,-0.30517578125,0.06103515625,10.3033740234375,-0.5412744140625,0.48379394531250003
138,-0.6103515625,-0.30517578125,0.0,10.298583984375,-0.5412744140625,0.5077441406250001
139,-0.67138671875,-0.30517578125,0.06103515625,10.3225341796875,-0.5700146484375,0.5269042968750001
140,-0.6103515625,-0.3662109375,0.06103515625,10.317744140625,-0.5652246093750001,0.5029541015625
141,-0.67138671875,-0.3662109375,0.06103515625,10.3225341796875,-0.5460644531250001,0.4981640625
142,-0.6103515625,-0.244140625,0.0,10.308164062500001,-0.5412744140625,0.5221142578125
143,-0.6103515625,-0.244140625,0.06103515625,10.3033740234375,-0.5748046875,0.5221142578125
144,-0.6103515625,-0.3662109375,0.0,10.3225341796875,-0.5460644531250001,0.5125341796875
145,-0.67138671875,-0.3662109375,0.06103515625,10.3225341796875,-0.5460644531250001,0.5125341796875
146,-0.6103515625,-0.3662109375,0.1220703125,10.293793945312501,-0.6035449218750001,0.55564453125
147,-0.67138671875,-0.42724609375,-0.06103515625,10.260263671875,-0.5604345703125,0.5316943359375
148,-0.732421875,-0.42724609375,0.06103515625,10.336904296875,-0.55564453125,0.5077441406250001
149,-0.67138671875,-0.3662109375,0.06103515625,10.399174804687501,-0.5652246093750001,0.5077441406250001
150,-0.6103515625,-0.3662109375,0.0,10.360854492187501,-0.5460644531250001,0.48379394531250003
151,-0.6103515625,-0.30517578125,0.0,10.2842138671875,-0.5460644531250001,0.4742138671875
152,-0.6103515625,-0.30517578125,0.06103515625,10.241103515625001,-0.536484375,0.488583984375
153,-0.6103515625,-0.3662109375,0.1220703125,10.3225341796875,-0.5412744140625,0.4646337890625
154,-0.54931640625,-0.3662109375,0.06103515625,10.360854492187501,-0.5508544921875,0.5125341796875
155,-0.6103515625,-0.30517578125,0.06103515625,10.3416943359375,-0.5652246093750001,0.5221142578125
156,-0.6103515625,-0.3662109375,0.06103515625,10.308164062500001,-0.5316943359375,0.5077441406250001
157,-0.6103515625,-0.3662109375,0.0,10.3033740234375,-0.5412744140625,0.488583984375
158,-0.54931640625,-0.3662109375,0.0,10.3225341796875,-0.5652246093750001,0.5125341796875
159,-0.6103515625,-0.30517578125,0.06103515625,10.3225341796875,-0.5604345703125,0.5269042968750001
160,-0.48828125,-0.3662109375,0.1220703125,10.336904296875,-0.5508544921875,0.5221142578125
161,-0.54931640625,-0.3662109375,0.18310546875,10.32732421875,-0.5508544921875,0.51732421875
162,-0.67138671875,-0.30517578125,0.06103515625,10.3033740234375,-0.5700146484375,0.4981640625
163,-0.6103515625,-0.30517578125,0.0,10.3033740234375,-0.5748046875,0.5077441406250001
164,-0.54931640625,-0.3662109375,0.0,10.308164062500001,-0.55564453125,0.51732421875
165,-0.54931640625,-0.42724609375,0.1220703125,10.32732421875,-0.5748046875,0.536484375
166,-0.54931640625,-0.3662109375,0.06103515625,10.346484375000001,-0.5604345703125,0.4981640625
167,-0.67138671875,-0.3662109375,0.06103515625,10.3129541015625,-0.5508544921875,0.5221142578125
168,-0.6103515625,-0.42724609375,0.1220703125,10.2842138671875,-0.536484375,0.5125341796875
169,-0.54931640625,-0.30517578125,0.0,10.3225341796875,-0.5412744140625,0.47900390625
170,-0.54931640625,-0.3662109375,0.06103515625,10.346484375000001,-0.5604345703125,0.469423828125
171,-0.54931640625,-0.244140625,0.06103515625,10.317744140625,-0.5412744140625,0.5029541015625
172,-0.54931640625,-0.244140625,0.06103515625,10.293793945312501,-0.51732421875,0.5125341796875
173,-0.54931640625,-0.42724609375,-0.06103515625,10.2842138671875,-0.55564453125,0.48379394531250003
174,-0.48828125,-0.3662109375,0.06103515625,10.3129541015625,-0.5508544921875,0.47900390625
175,-0.54931640625,-0.42724609375,0.1220703125,10.3512744140625,-0.5316943359375,0.5125341796875
176,-0.6103515625,-0.3662109375,0.06103515625,10.3512744140625,-0.5508544921875,0.5029541015625
177,-0.6103515625,-0.30517578125,0.06103515625,10.3225341796875,-0.5460644531250001,0.4742138671875
178,-0.6103515625,-0.3662109375,0.06103515625,10.298583984375,-0.5652246093750001,0.5029541015625
179,-0.6103515625,-0.42724609375,0.18310546875,10.308164062500001,-0.55564453125,0.536484375
180,-0.6103515625,-0.3662109375,0.1220703125,10.356064453125,-0.5460644531250001,0.5508544921875
181,-0.6103515625,-0.3662109375,0.06103515625,10.332114257812501,-0.5604345703125,0.5125341796875
182,-0.48828125,-0.42724609375,0.0,10.3129541015625,-0.5652246093750001,0.5269042968750001
183,-0.67138671875,-0.3662109375,0.0,10.3225341796875,-0.5700146484375,0.5221142578125
184,-0.48828125,-0.30517578125,0.1220703125,10.3033740234375,-0.5460644531250001,0.5316943359375
185,-0.54931640625,-0.3662109375,0.06103515625,10.32732421875,-0.5508544921875,0.5221142578125
186,-0.6103515625,-0.42724609375,-0.06103515625,10.332114257812501,-0.5508544921875,0.5029541015625
187,-0.6103515625,-0.42724609375,0.0,10.2842138671875,-0.55564453125,0.47900390625
188,-0.6103515625,-0.244140625,0.06103515625,10.3033740234375,-0.5604345703125,0.488583984375
189,-0.48828125,-0.3662109375,0.06103515625,10.308164062500001,-0.5269042968750001,0.5316943359375
190,-0.6103515625,-0.3662109375,0.06103515625,10.293793945312501,-0.5412744140625,0.4981640625
191,-0.67138671875,-0.3662109375,0.0,10.298583984375,-0.55564453125,0.5077441406250001
192,-0.6103515625,-0.3662109375,0.06103515625,10.3033740234375,-0.5508544921875,0.5029541015625
193,-0.6103515625,-0.3662109375,0.06103515625,10.293793945312501,-0.5460644531250001,0.5269042968750001
194,-0.54931640625,-0.3662109375,0.06103515625,10.3033740234375,-0.5508544921875,0.47900390625
195,-0.6103515625,-0.3662109375,0.06103515625,10.3225341796875,-0.5652246093750001,0.5077441406250001
196,-0.6103515625,-0.3662109375,0.1220703125,10.3416943359375,-0.5652246093750001,0.5316943359375
197,-0.6103515625,-0.42724609375,0.06103515625,10.260263671875,-0.5652246093750001,0.5221142578125
198,-0.54931640625,-0.48828125,0.06103515625,10.28900390625,-0.5412744140625,0.488583984375
199,-0.6103515625,-0.3662109375,0.1220703125,10.394384765625,-0.5748046875,0.5077441406250001
200,-0.6103515625,-0.30517578125,0.0,10.4087548828125,-0.55564453125,0.48379394531250003
201,-0.54931640625,-0.18310546875,0.0,10.336904296875,-0.5652246093750001,0.49337402343750003
202,-0.42724609375,-0.244140625,0.06103515625,10.2171533203125,-0.5795947265625,0.488583984375
203,-0.48828125,-0.30517578125,0.06103515625,10.2746337890625,-0.55564453125,0.536484375
204,-0.6103515625,-0.244140625,0.0,10.32732421875,-0.55564453125,0.5316943359375
205,-0.54931640625,-0.30517578125,0.0,10.317744140625,-0.5460644531250001,0.5221142578125
206,-0.48828125,-0.42724609375,0.1220703125,10.3225341796875,-0.5508544921875,0.51732421875
207,-0.6103515625,-0.42724609375,0.0,10.3129541015625,-0.5316943359375,0.5269042968750001
208,-0.6103515625,-0.3662109375,-0.06103515625,10.308164062500001,-0.536484375,0.5125341796875
209,-0.54931640625,-0.3662109375,0.0,10.298583984375,-0.5412744140625,0.51732421875
210,-0.6103515625,-0.3662109375,0.06103515625,10.298583984375,-0.5316943359375,0.51732421875
211,-0.67138671875,-0.42724609375,0.06103515625,10.346484375000001,-0.5460644531250001,0.48379394531250003
212,-0.6103515625,-0.30517578125,-0.06103515625,10.317744140625,-0.5460644531250001,0.488583984375
213,-0.42724609375,-0.3662109375,0.0,10.317744140625,-0.536484375,0.51732421875
214,-0.42724609375,-0.42724609375,0.06103515625,10.298583984375,-0.5508544921875,0.55564453125
215,-0.6103515625,-0.244140625,0.0,10.3225341796875,-0.5604345703125,0.5269042968750001
216,-0.6103515625,-0.3662109375,0.0,10.360854492187501,-0.5795947265625,0.536484375
217,-0.54931640625,-0.3662109375,0.0,10.336904296875,-0.5891748046875,0.536484375
218,-0.54931640625,-0.3662109375,0.0,10.28900390625,-0.5843847656250001,0.536484375
219,-0.6103515625,-0.48828125,0.06103515625,10.2842138671875,-0.5843847656250001,0.5604345703125
220,-0.6103515625,-0.3662109375,0.0,10.332114257812501,-0.5795947265625,0.5316943359375
221,-0.6103515625,-0.30517578125,-0.06103515625,10.3512744140625,-0.5652246093750001,0.5221142578125
222,-0.54931640625,-0.244140625,0.0,10.317744140625,-0.5508544921875,0.51732421875
223,-0.54931640625,-0.30517578125,-0.06103515625,10.26984375,-0.55564453125,0.5029541015625
224,-0.48828125,-0.30517578125,0.0,10.3129541015625,-0.5652246093750001,0.5316943359375
225,-0.54931640625,-0.30517578125,0.06103515625,10.332114257812501,-0.536484375,0.49337402343750003
226,-0.6103515625,-0.30517578125,0.0,10.336904296875,-0.5316943359375,0.5125341796875
227,-0.67138671875,-0.3662109375,0.0,10.298583984375,-0.5316943359375,0.488583984375
228,-0.6103515625,-0.244140625,0.06103515625,10.3129541015625,-0.5221142578125,0.47900390625
229,-0.6103515625,-0.30517578125,0.0,10.3129541015625,-0.5316943359375,0.488583984375
230,-0.67138671875,-0.30517578125,0.06103515625,10.3225341796875,-0.5508544921875,0.5125341796875
231,-0.6103515625,-0.30517578125,0.0,10.3225341796875,-0.5508544921875,0.5077441406250001
232,-0.67138671875,-0.30517578125,0.06103515625,10.28900390625,-0.5412744140625,0.51732421875
233,-0.79345703125,-0.30517578125,0.1220703125,10.279423828125001,-0.5269042968750001,0.488583984375
234,-0.67138671875,-0.3662109375,0.18310546875,10.3033740234375,-0.5700146484375,0.5269042968750001
235,-0.54931640625,-0.3662109375,0.06103515625,10.32732421875,-0.5700146484375,0.5508544921875
236,-0.6103515625,-0.30517578125,0.06103515625,10.32732421875,-0.5652246093750001,0.55564453125
237,-0.54931640625,-0.3662109375,0.06103515625,10.279423828125001,-0.5748046875,0.55564453125
238,-0.54931640625,-0.42724609375,0.0,10.3129541015625,-0.5748046875,0.5316943359375
239,-0.54931640625,-0.3662109375,0.1220703125,10.336904296875,-0.5700146484375,0.5412744140625
240,-0.6103515625,-0.3662109375,0.06103515625,10.332114257812501,-0.5604345703125,0.5412744140625
241,-0.54931640625,-0.42724609375,0.06103515625,10.3033740234375,-0.5843847656250001,0.5125341796875
242,-0.54931640625,-0.42724609375,0.06103515625,10.32732421875,-0.5652246093750001,0.5221142578125
243,-0.6103515625,-0.30517578125,0.06103515625,10.3225341796875,-0.5508544921875,0.5269042968750001
244,-0.67138671875,-0.3662109375,0.0,10.308164062500001,-0.5508544921875,0.469423828125
245,-0.6103515625,-0.3662109375,0.06103515625,10.298583984375,-0.536484375,0.488583984375
246,-0.54931640625,-0.42724609375,0.06103515625,10.332114257812501,-0.5221142578125,0.49337402343750003
247,-0.67138671875,-0.42724609375,-0.06103515625,10.3225341796875,-0.5029541015625,0.47900390625
248,-0.6103515625,-0.42724609375,0.0,10.298583984375,-0.5077441406250001,0.4550537109375
249,-0.6103515625,-0.30517578125,0.06103515625,10.317744140625,-0.5077441406250001,0.488583984375
250,-0.6103515625,-0.30517578125,0.0,10.336904296875,-0.5412744140625,0.4981640625
251,-0.54931640625,-0.3662109375,0.06103515625,10.336904296875,-0.5508544921875,0.51732421875
252,-0.732421875,-0.42724609375,0.06103515625,10.28900390625,-0.5652246093750001,0.5221142578125
253,-0.67138671875,-0.3662109375,0.0,10.298583984375,-0.5748046875,0.536484375
254,-0.6103515625,-0.30517578125,0.0,10.3033740234375,-0.5795947265625,0.5508544921875
255,-0.54931640625,-0.30517578125,-0.06103515625,10.3033740234375,-0.5795947265625,0.5316943359375
256,-0.54931640625,-0.30517578125,0.06103515625,10.3512744140625,-0.5843847656250001,0.5604345703125
257,-0.6103515625,-0.3662109375,0.0,10.3129541015625,-0.5748046875,0.5029541015625
258,-0.6103515625,-0.30517578125,-0.06103515625,10.293793945312501,-0.5700146484375,0.5221142578125
259,-0.48828125,-0.30517578125,0.0,10.3225341796875,-0.5652246093750001,0.5316943359375
260,-0.48828125,-0.3662109375,0.0,10.336904296875,-0.55564453125,0.5269042968750001
261,-0.6103515625,-0.30517578125,0.06103515625,10.356064453125,-0.55564453125,0.47900390625
262,-0.6103515625,-0.3662109375,0.06103515625,10.346484375000001,-0.5460644531250001,0.4742138671875
263,-0.42724609375,-0.42724609375,0.06103515625,10.293793945312501,-0.5316943359375,0.469423828125
264,-0.48828125,-0.42724609375,0.1220703125,10.2842138671875,-0.5460644531250001,0.488583984375
265,-0.6103515625,-0.42724609375,0.0,10.3129541015625,-0.51732421875,0.5125341796875
266,-0.48828125,-0.3662109375,0.06103515625,10.332114257812501,-0.5221142578125,0.48379394531250003
267,-0.42724609375,-0.30517578125,0.06103515625,10.3225341796875,-0.5460644531250001,0.4742138671875
268,-0.48828125,-0.42724609375,0.1220703125,10.308164062500001,-0.5412744140625,0.5125341796875
269,-0.48828125,-0.3662109375,0.0,10.3225341796875,-0.55564453125,0.49337402343750003
270,-0.6103515625,-0.3662109375,0.06103515625,10.308164062500001,-0.55564453125,0.4981640625
271,-0.6103515625,-0.3662109375,0.06103515625,10.317744140625,-0.5604345703125,0.51732421875
272,-0.54931640625,-0.3662109375,0.06103515625,10.3512744140625,-0.5795947265625,0.536484375
273,-0.48828125,-0.42724609375,0.1220703125,10.332114257812501,-0.5700146484375,0.5508544921875
274,-0.54931640625,-0.42724609375,0.06103515625,10.317744140625,-0.5795947265625,0.5221142578125
275,-0.54931640625,-0.3662109375,0.06103515625,10.32732421875,-0.5843847656250001,0.5460644531250001
276,-0.6103515625,-0.42724609375,0.1220703125,10.336904296875,-0.5748046875,0.536484375
277,-0.54931640625,-0.42724609375,0.06103515625,10.3512744140625,-0.5748046875,0.5316943359375
278,-0.6103515625,-0.42724609375,0.06103515625,10.3225341796875,-0.5604345703125,0.5077441406250001
279,-0.6103515625,-0.48828125,0.06103515625,10.298583984375,-0.5460644531250001,0.5125341796875
280,-0.54931640625,-0.30517578125,0.1220703125,10.3129541015625,-0.5412744140625,0.5269042968750001
281,-0.6103515625,-0.30517578125,0.06103515625,10.308164062500001,-0.5316943359375,0.4742138671875
282,-0.6103515625,-0.3662109375,0.06103515625,10.332114257812501,-0.5316943359375,0.4742138671875
283,-0.6103515625,-0.30517578125,0.0,10.332114257812501,-0.5316943359375,0.4981640625
284,-0.54931640625,-0.3662109375,0.1220703125,10.308164062500001,-0.536484375,0.4981640625
285,-0.54931640625,-0.3662109375,0.06103515625,10.3416943359375,-0.55564453125,0.4646337890625
286,-0.54931640625,-0.3662109375,0.06103515625,10.317744140625,-0.55564453125,0.4742138671875
287,-0.6103515625,-0.3662109375,-0.06103515625,10.32732421875,-0.5412744140625,0.5077441406250001
288,-0.67138671875,-0.30517578125,0.06103515625,10.3129541015625,-0.5508544921875,0.48379394531250003
289,-0.6103515625,-0.30517578125,0.06103515625,10.293793945312501,-0.5700146484375,0.51732421875
290,-0.54931640625,-0.30517578125,0.06103515625,10.3225341796875,-0.5748046875,0.5508544921875
291,-0.54931640625,-0.3662109375,0.0,10.336904296875,-0.5843847656250001,0.5460644531250001
292,-0.6103515625,-0.3662109375,0.06103515625,10.356064453125,-0.5843847656250001,0.536484375
293,-0.6103515625,-0.3662109375,0.1220703125,10.308164062500001,-0.5748046875,0.5412744140625
294,-0.54931640625,-0.42724609375,0.1220703125,10.298583984375,-0.5652246093750001,0.5508544921875
295,-0.67138671875,-0.3662109375,0.1220703125,10.3033740234375,-0.55564453125,0.536484375
296,-0.67138671875,-0.30517578125,0.1220703125,10.3129541015625,-0.5316943359375,0.5077441406250001
297,-0.54931640625,-0.3662109375,0.1220703125,10.336904296875,-0.5508544921875,0.488583984375
298,-0.54931640625,-0.3662109375,0.06103515625,10.3416943359375,-0.5412744140625,0.49337402343750003
299,-0.54931640625,-0.3662109375,0.06103515625,10.3033740234375,-0.5508544921875,0.48379394531250003
300,-0.54931640625,-0.42724609375,0.0,10.308164062500001,-0.5460644531250001,0.4981640625
301,-0.48828125,-0.3662109375,0.0,10.3225341796875,-0.5460644531250001,0.5029541015625
302,-0.54931640625,-0.42724609375,0.06103515625,10.3129541015625,-0.5269042968750001,0.5077441406250001
303,-0.6103515625,-0.42724609375,0.1220703125,10.336904296875,-0.5412744140625,0.5077441406250001
304,-0.54931640625,-0.3662109375,0.1220703125,10.32732421875,-0.5652246093750001,0.5269042968750001
305,-0.6103515625,-0.30517578125,0.0,10.3129541015625,-0.5652246093750001,0.5412744140625
306,-0.6103515625,-0.3662109375,0.0,10.298583984375,-0.5460644531250001,0.536484375
307,-0.6103515625,-0.3662109375,0.1220703125,10.3225341796875,-0.5460644531250001,0.5460644531250001
308,-0.6103515625,-0.3662109375,0.06103515625,10.32732421875,-0.55564453125,0.5029541015625
309,-0.6103515625,-0.30517578125,0.0,10.317744140625,-0.5700146484375,0.5460644531250001
310,-0.6103515625,-0.3662109375,0.0,10.298583984375,-0.5700146484375,0.5412744140625
311,-0.54931640625,-0.42724609375,0.0,10.3033740234375,-0.5795947265625,0.51732421875
312,-0.54931640625,-0.3662109375,0.06103515625,10.32732421875,-0.5652246093750001,0.5221142578125
313,-0.6103515625,-0.42724609375,0.0,10.332114257812501,-0.5748046875,0.51732421875
314,-0.54931640625,-0.3662109375,0.06103515625,10.317744140625,-0.5508544921875,0.5269042968750001
315,-0.6103515625,-0.30517578125,0.1220703125,10.2842138671875,-0.5412744140625,0.51732421875
316,-0.67138671875,-0.3662109375,0.06103515625,10.293793945312501,-0.5269042968750001,0.4742138671875
317,-0.67138671875,-0.3662109375,0.0,10.317744140625,-0.5221142578125,0.49337402343750003
318,-0.6103515625,-0.30517578125,0.06103515625,10.336904296875,0.067060546875,0.7041357421875001
319,5.126953125,-0.42724609375,0.0,10.202783203125,4.186494140625,2.3327490234375
320,12.26806640625,-1.15966796875,-0.1220703125,10.293793945312501,4.6367578125,3.343447265625
321,-4.21142578125,-0.42724609375,-0.1220703125,10.1692529296875,1.59029296875,2.5626708984375
322,12.39013671875,-0.79345703125,-0.18310546875,10.63388671875,-8.272397460937501,-0.9819580078125001
323,51.6357421875,3.23486328125,-4.39453125,11.769125976562501,-6.3372216796875005,-1.9351757812500001
324,38.51318359375,4.82177734375,-43.88427734375,12.616962890625,-2.39501953125,0.852626953125
325,45.59326171875,8.544921875,-90.087890625,11.084150390625,0.622705078125,2.2608984375000003
326,26.4892578125,13.48876953125,-108.642578125,11.6876953125,1.906435546875,2.117197265625
327,7.26318359375,31.1279296875,-122.802734375,13.8575830078125,0.6274951171875001,1.599873046875
328,7.6904296875,24.59716796875,-114.68505859375,13.498330078125,-1.2789404296875,1.101708984375
329,9.21630859375,-19.22607421875,-87.95166015625,12.444521484375,-3.6547998046875003,2.0309765625000002
330,6.9580078125,-44.49462890625,-63.3544921875,12.31998046875,-5.2115625,3.669169921875
331,-2.13623046875,-41.19873046875,-37.7197265625,12.0708984375,-5.7049365234375005,3.6931201171875
332,-17.27294921875,-28.6865234375,-5.55419921875,11.596684570312501,-5.958808593750001,2.7446923828125
333,-20.751953125,-26.79443359375,16.29638671875,10.202783203125,-5.6091357421875,2.1459375
334,-21.91162109375,-35.400390625,28.50341796875,9.1537646484375,-5.3025732421875,2.2177880859375003
335,-20.263671875,-34.1796875,39.24560546875,8.310717773437501,-5.0630712890625,2.5626708984375
336,-22.27783203125,-28.1982421875,42.236328125,7.3575,-4.3349853515625005,3.6021093750000004
337,-35.2783203125,-24.4140625,37.109375,7.070097656250001,-3.3626074218750004,3.956572265625
338,-47.7294921875,-14.0380859375,31.31103515625,8.047265625,-2.6393115234375,3.4488281250000004
339,-62.255859375,9.765625,17.88330078125,9.1250244140625,-1.599873046875,2.6680517578125
340,-73.54736328125,14.5263671875,-2.0751953125,9.881850585937501,-1.43701171875,2.0932470703125
341,-82.21435546875,4.5166015625,-19.59228515625,10.6578369140625,-1.2502001953125002,1.350791015625
342,-83.0078125,-4.150390625,-25.57373046875,10.4758154296875,-0.47900390625,0.7424560546875001
343,-80.6884765625,-12.6953125,-19.47021484375,9.455537109375001,-0.009580078125,0.9675878906250001
344,-85.8154296875,-15.93017578125,-8.4228515625,8.363408203125001,0.1389111328125,1.7483642578125
345,-92.71240234375,-6.4697265625,8.6669921875,7.597001953125001,0.5795947265625,1.9399658203125
346,-91.4306640625,9.58251953125,36.0107421875,7.4006103515625,1.7771044921875,1.4561718750000001
347,-82.03125,21.3623046875,54.62646484375,7.529941406250001,3.477568359375,0.9244775390625001
348,-71.35009765625,27.77099609375,59.63134765625,7.6305322265625,4.588857421875001,0.641865234375
349,-62.1337890625,32.77587890625,57.2509765625,8.48794921875,4.905,0.20597167968750002
350,-52.978515625,34.1796875,52.001953125,9.5657080078125,4.6223876953125,-0.488583984375
351,-47.7294921875,28.01513671875,40.95458984375,10.32732421875,4.248764648437501,-0.9244775390625001
352,-46.38671875,17.7001953125,25.634765625,10.509345703125,3.592529296875,-0.7280859375000001
353,-45.7763671875,12.3291015625,19.95849609375,10.121352539062501,3.1278955078125,-0.5604345703125
354,-41.6259765625,11.71875,24.5361328125,9.6998291015625,2.682421875,-0.6849755859375001
355,-36.7431640625,13.00048828125,30.2734375,9.532177734375,2.069296875,-0.6945556640625
356,-31.982421875,13.3056640625,36.31591796875,10.1165625,1.6860937500000002,-0.7855664062500001
357,-26.9775390625,13.12255859375,41.68701171875,11.4338232421875,1.6908837890625001,-0.8813671875000001
358,-25.08544921875,16.54052734375,39.4287109375,12.41578125,1.6908837890625001,-0.9580078125
359,-23.86474609375,19.04296875,33.26416015625,12.3726708984375,2.31837890625,-1.2310400390625
360,-25.5126953125,11.5966796875,18.00537109375,11.984677734375001,3.12310546875,-1.3268408203125002
361,-23.62060546875,-54.62646484375,-26.67236328125,14.777270507812501,3.7314404296875003,-4.641547851562501
362,-17.39501953125,-83.80126953125,-10.498046875,11.611054687500001,1.542392578125,0.7520361328125
363,-31.55517578125,-13.5498046875,27.2216796875,9.934541015625001,1.9255957031250002,0.17244140625
364,-22.3388671875,-23.74267578125,1.220703125,11.8409765625,2.835703125,-2.20341796875
365,-13.18359375,-1.40380859375,-0.8544921875,10.28900390625,2.20341796875,-1.6429833984375002
366,-8.11767578125,0.48828125,0.3662109375,10.188413085937501,0.9723779296875,-0.5748046875
367,-1.8310546875,-1.89208984375,0.1220703125,10.3512744140625,0.5029541015625,-0.9819580078125001
368,-0.3662109375,0.91552734375,0.0,10.3129541015625,-0.0047900390625,-0.8238867187500001
369,-5.92041015625,1.708984375,0.0,10.308164062500001,-0.6179150390625,-0.3879931640625
370,-11.29150390625,0.244140625,-0.06103515625,10.356064453125,-0.9436376953125001,0.0814306640625
371,-14.70947265625,-0.18310546875,-0.06103515625,10.317744140625,-0.8669970703125001,0.43110351562500004
372,-14.09912109375,-0.42724609375,-0.06103515625,10.317744140625,-1.43701171875,0.8047265625000001
373,-1.8310546875,-0.6103515625,0.0,10.332114257812501,-0.63228515625,0.5700146484375
374,0.54931640625,-0.3662109375,0.0,10.317744140625,-0.4358935546875,0.45026367187500005
375,-0.732421875,-0.244140625,0.0,10.2842138671875,-0.5604345703125,0.49337402343750003
376,-0.54931640625,-0.244140625,0.06103515625,10.2650537109375,-0.5412744140625,0.5125341796875
377,-0.67138671875,-0.3662109375,0.06103515625,10.308164062500001,-0.5460644531250001,0.5221142578125
378,-0.67138671875,-0.3662109375,-0.06103515625,10.336904296875,-0.5987548828125,0.51732421875
379,-0.6103515625,-0.42724609375,0.0,10.3129541015625,-0.5700146484375,0.5316943359375
380,-0.6103515625,-0.42724609375,0.06103515625,10.317744140625,-0.55564453125,0.55564453125
381,-0.6103515625,-0.48828125,0.0,10.28900390625,-0.5604345703125,0.51732421875
382,-0.6103515625,-0.3662109375,0.06103515625,10.32732421875,-0.5700146484375,0.5508544921875
383,-0.6103515625,-0.3662109375,0.1220703125,10.356064453125,-0.5604345703125,0.5460644531250001
384,-0.6103515625,-0.3662109375,0.1220703125,10.317744140625,-0.5700146484375,0.51732421875
385,-0.54931640625,-0.3662109375,0.06103515625,10.3225341796875,-0.55564453125,0.5029541015625
386,-0.48828125,-0.30517578125,0.06103515625,10.3033740234375,-0.5125341796875,0.48379394531250003
387,-0.54931640625,-0.3662109375,0.06103515625,10.293793945312501,-0.5412744140625,0.4981640625
388,-0.6103515625,-0.3662109375,0.06103515625,10.332114257812501,-0.55564453125,0.5029541015625
389,-0.48828125,-0.3662109375,0.06103515625,10.293793945312501,-0.51732421875,0.51732421875
390,-0.54931640625,-0.3662109375,0.06103515625,10.3225341796875,-0.536484375,0.49337402343750003
391,-0.54931640625,-0.30517578125,0.06103515625,10.3033740234375,-0.5316943359375,0.49337402343750003
392,-0.67138671875,-0.3662109375,0.06103515625,10.3129541015625,-0.5269042968750001,0.4981640625
393,-0.6103515625,-0.3662109375,0.0,10.336904296875,-0.5412744140625,0.5316943359375
394,-0.6103515625,-0.3662109375,0.06103515625,10.332114257812501,-0.5269042968750001,0.5125341796875
395,-0.48828125,-0.3662109375,0.06103515625,10.32732421875,-0.5316943359375,0.5029541015625
396,-0.48828125,-0.3662109375,0.06103515625,10.3129541015625,-0.5460644531250001,0.5125341796875
397,-0.54931640625,-0.42724609375,0.06103515625,10.28900390625,-0.5700146484375,0.5269042968750001
398,-0.48828125,-0.42724609375,0.06103515625,10.32732421875,-0.55564453125,0.5269042968750001
399,-0.54931640625,-0.42724609375,0.06103515625,10.32732421875,-0.5652246093750001,0.5125341796875
400,-0.54931640625,-0.3662109375,0.06103515625,10.317744140625,-0.5652246093750001,0.5221142578125
401,-0.6103515625,-0.42724609375,0.1220703125,10.3033740234375,-0.5652246093750001,0.5316943359375
402,-0.6103515625,-0.3662109375,0.18310546875,10.3033740234375,-0.5508544921875,0.5077441406250001
403,-0.54931640625,-0.42724609375,0.1220703125,10.298583984375,-0.55564453125,0.5269042968750001
404,-0.67138671875,-0.3662109375,0.06103515625,10.3225341796875,-0.5221142578125,0.4981640625
405,-0.48828125,-0.3662109375,0.1220703125,10.32732421875,-0.536484375,0.5125341796875
406,-0.54931640625,-0.30517578125,0.06103515625,10.293793945312501,-0.5221142578125,0.488583984375
407,-0.6103515625,-0.30517578125,0.1220703125,10.2842138671875,-0.5125341796875,0.5029541015625
408,-0.6103515625,-0.3662109375,0.06103515625,10.298583984375,-0.5029541015625,0.47900390625
409,-0.54931640625,-0.3662109375,0.06103515625,10.308164062500001,-0.5269042968750001,0.5029541015625
410,-0.54931640625,-0.3662109375,0.0,10.317744140625,-0.51732421875,0.4981640625
411,-0.67138671875,-0.3662109375,0.06103515625,10.298583984375,-0.5269042968750001,0.469423828125
412,-0.6103515625,-0.30517578125,0.18310546875,10.298583984375,-0.55564453125,0.488583984375
413,-0.67138671875,-0.3662109375,0.06103515625,10.28900390625,-0.5412744140625,0.5269042968750001
414,-0.54931640625,-0.30517578125,0.0,10.336904296875,-0.5460644531250001,0.4981640625
415,-0.54931640625,-0.30517578125,0.06103515625,10.298583984375,-0.5748046875,0.4981640625
416,-0.6103515625,-0.42724609375,0.0,10.317744140625,-0.5652246093750001,0.51732421875
417,-0.54931640625,-0.30517578125,0.06103515625,10.317744140625,-0.5748046875,0.5508544921875
418,-0.54931640625,-0.3662109375,0.06103515625,10.308164062500001,-0.5460644531250001,0.5316943359375
419,-0.67138671875,-0.3662109375,0.06103515625,10.3129541015625,-0.5604345703125,0.5125341796875
420,-0.67138671875,-0.3662109375,0.0,10.298583984375,-0.5412744140625,0.5029541015625
421,-0.54931640625,-0.42724609375,0.0,10.3129541015625,-0.5460644531250001,0.488583984375
422,-0.54931640625,-0.3662109375,0.06103515625,10.3033740234375,-0.5316943359375,0.5077441406250001
423,-0.6103515625,-0.30517578125,0.1220703125,10.308164062500001,-0.5221142578125,0.5077441406250001
424,-0.48828125,-0.3662109375,0.06103515625,10.336904296875,-0.5221142578125,0.4550537109375
425,-0.54931640625,-0.3662109375,0.0,10.317744140625,-0.51732421875,0.4981640625
426,-0.54931640625,-0.3662109375,0.0,10.298583984375,-0.536484375,0.49337402343750003
427,-0.6103515625,-0.3662109375,0.0,10.308164062500001,-0.51732421875,0.488583984375
428,-0.54931640625,-0.3662109375,0.06103515625,10.32732421875,-0.536484375,0.5029541015625
429,-0.54931640625,-0.42724609375,0.06103515625,10.308164062500001,-0.55564453125,0.5077441406250001
430,-0.54931640625,-0.42724609375,0.06103515625,10.32732421875,-0.5604345703125,0.5316943359375
431,-0.6103515625,-0.30517578125,0.06103515625,10.3033740234375,-0.5412744140625,0.5077441406250001
432,-0.54931640625,-0.3662109375,0.06103515625,10.2746337890625,-0.55564453125,0.51732421875
433,-0.6103515625,-0.3662109375,0.06103515625,10.308164062500001,-0.5652246093750001,0.5077441406250001
434,-0.732421875,-0.42724609375,0.06103515625,10.3512744140625,-0.5700146484375,0.5125341796875
435,-0.67138671875,-0.30517578125,0.06103515625,10.317744140625,-0.5700146484375,0.51732421875
436,-0.54931640625,-0.30517578125,0.06103515625,10.298583984375,-0.5748046875,0.51732421875
437,-0.6103515625,-0.3662109375,0.06103515625,10.3225341796875,-0.55564453125,0.5412744140625
438,-0.54931640625,-0.3662109375,0.1220703125,10.298583984375,-0.5604345703125,0.5269042968750001
439,-0.6103515625,-0.30517578125,0.1220703125,10.308164062500001,-0.5604345703125,0.5221142578125
440,-0.6103515625,-0.48828125,0.06103515625,10.3225341796875,-0.5316943359375,0.51732421875
441,-0.6103515625,-0.3662109375,0.0,10.3129541015625,-0.51732421875,0.49337402343750003
442,-0.6103515625,-0.30517578125,0.06103515625,10.308164062500001,-0.5029541015625,0.5125341796875
443,-0.67138671875,-0.3662109375,0.1220703125,10.308164062500001,-0.5221142578125,0.5029541015625
444,-0.54931640625,-0.42724609375,0.06103515625,10.317744140625,-0.536484375,0.47900390625
445,-0.67138671875,-0.3662109375,0.06103515625,10.308164062500001,-0.5269042968750001,0.5077441406250001
446,-0.54931640625,-0.3662109375,0.06103515625,10.298583984375,-0.5269042968750001,0.5269042968750001
447,-0.54931640625,-0.3662109375,0.1220703125,10.3129541015625,-0.5460644531250001,0.5269042968750001
448,-0.54931640625,-0.30517578125,0.06103515625,10.298583984375,-0.5316943359375,0.51732421875
449,-0.6103515625,-0.3662109375,0.06103515625,10.308164062500001,-0.5412744140625,0.51732421875
450,-0.6103515625,-0.3662109375,0.06103515625,10.308164062500001,-0.55564453125,0.5412744140625
451,-0.6103515625,-0.30517578125,0.06103515625,10.3033740234375,-0.55564453125,0.5221142578125
452,-0.54931640625,-0.3662109375,0.06103515625,10.308164062500001,-0.5700146484375,0.5221142578125
453,-0.6103515625,-0.3662109375,0.06103515625,10.3225341796875,-0.5460644531250001,0.5125341796875
454,-0.54931640625,-0.3662109375,0.1220703125,10.3129541015625,-0.5700146484375,0.5269042968750001
455,-0.6103515625,-0.3662109375,0.06103515625,10.3225341796875,-0.5604345703125,0.49337402343750003
456,-0.6103515625,-0.42724609375,0.0,10.32732421875,-0.55564453125,0.5029541015625
457,-0.54931640625,-0.3662109375,0.0,10.308164062500001,-0.5604345703125,0.5221142578125
458,-0.48828125,-0.3662109375,0.06103515625,10.298583984375,-0.51732421875,0.51732421875
459,-0.48828125,-0.3662109375,0.06103515625,10.332114257812501,-0.5316943359375,0.5029541015625
460,-0.54931640625,-0.42724609375,0.06103515625,10.32732421875,-0.536484375,0.5029541015625
461,-0.54931640625,-0.3662109375,0.1220703125,10.3129541015625,-0.5125341796875,0.49337402343750003
462,-0.6103515625,-0.3662109375,0.1220703125,10.3033740234375,-0.5316943359375,0.488583984375
463,-0.54931640625,-0.42724609375,0.06103515625,10.317744140625,-0.5269042968750001,0.49337402343750003
464,-0.6103515625,-0.42724609375,0.06103515625,10.308164062500001,-0.5221142578125,0.5125341796875
465,-0.6103515625,-0.3662109375,0.0,10.308164062500001,-0.5604345703125,0.48379394531250003
466,-0.54931640625,-0.3662109375,0.06103515625,10.317744140625,-0.5508544921875,0.49337402343750003
467,-0.54931640625,-0.3662109375,0.06103515625,10.317744140625,-0.5652246093750001,0.51732421875
468,-0.6103515625,-0.3662109375,0.06103515625,10.3033740234375,-0.5508544921875,0.4981640625
469,-0.67138671875,-0.30517578125,0.06103515625,10.336904296875,-0.5412744140625,0.48379394531250003
470,-0.67138671875,-0.42724609375,0.06103515625,10.3225341796875,-0.5460644531250001,0.5029541015625
471,-0.67138671875,-0.42724609375,0.06103515625,10.298583984375,-0.5508544921875,0.5412744140625
472,-0.6103515625,-0.30517578125,0.1220703125,10.298583984375,-0.5508544921875,0.51732421875
473,-0.54931640625,-0.30517578125,0.06103515625,10.317744140625,-0.5460644531250001,0.5077441406250001
474,-0.54931640625,-0.3662109375,0.06103515625,10.3512744140625,-0.5652246093750001,0.536484375
475,-0.6103515625,-0.42724609375,0.06103515625,10.336904296875,-0.55564453125,0.5269042968750001
476,-0.6103515625,-0.42724609375,0.0,10.279423828125001,-0.5460644531250001,0.5077441406250001
477,-0.54931640625,-0.48828125,0.06103515625,10.2650537109375,-0.51732421875,0.5029541015625
478,-0.6103515625,-0.3662109375,0.1220703125,10.3225341796875,-0.5412744140625,0.4981640625
479,-0.54931640625,-0.30517578125,0.1220703125,10.346484375000001,-0.5460644531250001,0.51732421875
480,-0.54931640625,-0.3662109375,0.06103515625,10.308164062500001,-0.5269042968750001,0.5077441406250001
481,-0.6103515625,-0.3662109375,0.06103515625,10.279423828125001,-0.51732421875,0.5077441406250001
482,-0.6103515625,-0.3662109375,0.1220703125,10.2842138671875,-0.5269042968750001,0.49337402343750003
483,-0.48828125,-0.3662109375,0.1220703125,10.3512744140625,-0.5412744140625,0.5269042968750001
484,-0.54931640625,-0.3662109375,0.06103515625,10.360854492187501,-0.5508544921875,0.5029541015625
485,-0.6103515625,-0.3662109375,0.1220703125,10.32732421875,-0.5508544921875,0.48379394531250003
486,-0.54931640625,-0.3662109375,0.0,10.2842138671875,-0.5508544921875,0.5125341796875
487,-0.54931640625,-0.3662109375,0.0,10.26984375,-0.5652246093750001,0.5316943359375
488,-0.6103515625,-0.3662109375,0.1220703125,10.317744140625,-0.5700146484375,0.536484375
489,-0.6103515625,-0.30517578125,0.06103515625,10.360854492187501,-0.5604345703125,0.4981640625
490,-0.54931640625,-0.3662109375,0.0,10.3416943359375,-0.5748046875,0.5125341796875
491,-0.67138671875,-0.3662109375,0.06103515625,10.28900390625,-0.5652246093750001,0.5412744140625
492,-0.67138671875,-0.3662109375,0.0,10.2746337890625,-0.5508544921875,0.5029541015625
493,-0.48828125,-0.3662109375,0.0,10.279423828125001,-0.5460644531250001,0.488583984375
494,-0.6103515625,-0.42724609375,0.06103515625,10.332114257812501,-0.5460644531250001,0.488583984375
495,-0.6103515625,-0.3662109375,0.06103515625,10.317744140625,-0.536484375,0.49337402343750003
496,-0.54931640625,-0.3662109375,0.1220703125,10.293793945312501,-0.5221142578125,0.5125341796875
497,-0.67138671875,-0.3662109375,0.1220703125,10.279423828125001,-0.55564453125,0.48379394531250003
498,-0.732421875,-0.42724609375,0.1220703125,10.2842138671875,-0.536484375,0.4981640625
499,-0.6103515625,-0.30517578125,0.1220703125,10.3416943359375,-0.536484375,0.5077441406250001
500,-0.54931640625,-0.3662109375,0.06103515625,10.317744140625,-0.5316943359375,0.48379394531250003
501,-0.67138671875,-0.3662109375,0.06103515625,10.279423828125001,-0.536484375,0.48379394531250003
502,-0.54931640625,-0.42724609375,0.06103515625,10.298583984375,-0.5652246093750001,0.5077441406250001
503,-0.6103515625,-0.3662109375,0.0,10.3225341796875,-0.5460644531250001,0.5077441406250001
504,-0.67138671875,-0.3662109375,0.06103515625,10.3225341796875,-0.5508544921875,0.5029541015625
505,-0.6103515625,-0.3662109375,0.1220703125,10.3033740234375,-0.55564453125,0.5221142578125
506,-0.54931640625,-0.3662109375,0.06103515625,10.293793945312501,-0.55564453125,0.5125341796875
507,-0.48828125,-0.3662109375,0.0,10.279423828125001,-0.5508544921875,0.5269042968750001
508,-0.42724609375,-0.3662109375,-0.06103515625,10.308164062500001,-0.5508544921875,0.51732421875
509,-0.6103515625,-0.30517578125,0.06103515625,10.3225341796875,-0.5412744140625,0.47900390625
510,-0.6103515625,-0.30517578125,0.06103515625,10.332114257812501,-0.55564453125,0.488583984375
511,-0.54931640625,-0.48828125,0.06103515625,10.26984375,-0.5316943359375,0.5221142578125
512,-0.54931640625,-0.42724609375,0.1220703125,10.293793945312501,-0.5460644531250001,0.5125341796875
513,-0.54931640625,-0.42724609375,0.06103515625,10.332114257812501,-0.536484375,0.4742138671875
514,-0.6103515625,-0.3662109375,0.0,10.332114257812501,-0.5125341796875,0.5125341796875
515,-0.54931640625,-0.3662109375,0.06103515625,10.293793945312501,-0.5316943359375,0.5221142578125
516,-0.54931640625,-0.3662109375,0.06103515625,10.279423828125001,-0.5125341796875,0.49337402343750003
517,-0.48828125,-0.30517578125,0.0,10.3225341796875,-0.5316943359375,0.47900390625
518,-0.54931640625,-0.42724609375,-0.06103515625,10.308164062500001,-0.5604345703125,0.488583984375
519,-0.54931640625,-0.3662109375,-0.06103515625,10.32732421875,-0.5508544921875,0.51732421875
520,-0.6103515625,-0.30517578125,0.06103515625,10.317744140625,-0.536484375,0.5125341796875
521,-0.6103515625,-0.3662109375,0.0,10.308164062500001,-0.5412744140625,0.5077441406250001
522,-0.54931640625,-0.42724609375,0.06103515625,10.28900390625,-0.5508544921875,0.51732421875
523,-0.54931640625,-0.42724609375,0.06103515625,10.308164062500001,-0.5652246093750001,0.55564453125
524,-0.67138671875,-0.3662109375,0.1220703125,10.3225341796875,-0.5412744140625,0.5269042968750001
525,-0.67138671875,-0.3662109375,0.06103515625,10.3225341796875,-0.55564453125,0.51732421875
526,-0.67138671875,-0.3662109375,0.06103515625,10.32732421875,-0.5700146484375,0.5029541015625
527,-0.67138671875,-0.30517578125,0.1220703125,10.3512744140625,-0.5652246093750001,0.488583984375
528,-0.6103515625,-0.3662109375,0.1220703125,10.3225341796875,-0.5652246093750001,0.5029541015625
529,-0.6103515625,-0.3662109375,0.0,10.3033740234375,-0.5412744140625,0.5269042968750001
530,-0.67138671875,-0.42724609375,0.06103515625,10.317744140625,-0.5412744140625,0.5077441406250001
531,-0.54931640625,-0.30517578125,0.06103515625,10.308164062500001,-0.5412744140625,0.5077441406250001
532,-0.48828125,-0.30517578125,-0.06103515625,10.3225341796875,-0.5269042968750001,0.5125341796875
533,-0.6103515625,-0.3662109375,0.0,10.3129541015625,-0.51732421875,0.469423828125
534,-0.6103515625,-0.42724609375,0.06103515625,10.3129541015625,-0.5029541015625,0.5077441406250001
535,-0.6103515625,-0.3662109375,0.18310546875,10.3129541015625,-0.51732421875,0.5077441406250001
536,-0.6103515625,-0.3662109375,0.1220703125,10.336904296875,-0.55564453125,0.5221142578125
537,-0.6103515625,-0.42724609375,0.06103515625,10.3416943359375,-0.5460644531250001,0.5269042968750001
538,-0.67138671875,-0.42724609375,0.06103515625,10.298583984375,-0.5460644531250001,0.5269042968750001
539,-0.67138671875,-0.3662109375,0.06103515625,10.3225341796875,-0.5316943359375,0.488583984375
540,-0.6103515625,-0.3662109375,0.06103515625,10.317744140625,-0.55564453125,0.4981640625
541,-0.54931640625,-0.3662109375,0.1220703125,10.3033740234375,-0.5700146484375,0.5269042968750001
542,-0.6103515625,-0.3662109375,0.06103515625,10.28900390625,-0.5652246093750001,0.5269042968750001
543,-0.6103515625,-0.3662109375,0.0,10.308164062500001,-0.5700146484375,0.5412744140625
544,-0.54931640625,-0.3662109375,0.06103515625,10.346484375000001,-0.5604345703125,0.5412744140625
545,-0.6103515625,-0.3662109375,0.1220703125,10.336904296875,-0.5412744140625,0.5125341796875
546,-0.6103515625,-0.3662109375,0.06103515625,10.3129541015625,-0.55564453125,0.5029541015625
547,-0.67138671875,-0.42724609375,0.06103515625,10.28900390625,-0.55564453125,0.5125341796875
548,-0.6103515625,-0.42724609375,0.06103515625,10.293793945312501,-0.5460644531250001,0.5077441406250001
549,-0.6103515625,-0.3662109375,0.06103515625,10.317744140625,-0.5269042968750001,0.5221142578125
550,-0.54931640625,-0.3662109375,0.0,10.308164062500001,-0.5508544921875,0.48379394531250003
551,-0.54931640625,-0.3662109375,0.06103515625,10.336904296875,-0.536484375,0.469423828125
552,-0.6103515625,-0.3662109375,0.06103515625,10.3129541015625,-0.5269042968750001,0.4981640625
553,-0.732421875,-0.42724609375,0.1220703125,10.308164062500001,-0.51732421875,0.5077441406250001
554,-0.67138671875,-0.42724609375,0.06103515625,10.32732421875,-0.536484375,0.5029541015625
555,-0.67138671875,-0.3662109375,0.0,10.308164062500001,-0.5412744140625,0.49337402343750003
556,-0.48828125,-0.3662109375,0.06103515625,10.3033740234375,-0.5508544921875,0.51732421875
557,-0.54931640625,-0.3662109375,0.0,10.3033740234375,-0.5412744140625,0.5412744140625
558,-0.54931640625,-0.3662109375,0.06103515625,10.26984375,-0.55564453125,0.5221142578125
559,-0.67138671875,-0.3662109375,0.06103515625,10.298583984375,-0.5652246093750001,0.5029541015625
560,-0.67138671875,-0.3662109375,0.1220703125,10.32732421875,-0.5748046875,0.5125341796875
561,-0.6103515625,-0.42724609375,0.0,10.332114257812501,-0.5460644531250001,0.5221142578125
562,-0.6103515625,-0.3662109375,0.0,10.3033740234375,-0.5748046875,0.51732421875
563,-0.54931640625,-0.3662109375,0.18310546875,10.2746337890625,-0.5700146484375,0.4742138671875
564,-0.6103515625,-0.3662109375,0.18310546875,10.3129541015625,-0.5412744140625,0.488583984375
565,-0.67138671875,-0.3662109375,0.0,10.32732421875,-0.5508544921875,0.51732421875
566,-0.67138671875,-0.3662109375,0.06103515625,10.3225341796875,-0.5604345703125,0.4646337890625
567,-0.6103515625,-0.3662109375,0.1220703125,10.317744140625,-0.5412744140625,0.49337402343750003
568,-0.48828125,-0.42724609375,0.06103515625,10.317744140625,-0.5316943359375,0.5125341796875
569,-0.54931640625,-0.3662109375,0.1220703125,10.2842138671875,-0.5316943359375,0.5269042968750001
570,-0.54931640625,-0.42724609375,0.06103515625,10.308164062500001,-0.55564453125,0.4742138671875
571,-0.54931640625,-0.3662109375,0.06103515625,10.32732421875,-0.536484375,0.5029541015625
572,-0.6103515625,-0.42724609375,0.06103515625,10.3129541015625,-0.5412744140625,0.5077441406250001
573,-0.54931640625,-0.3662109375,0.1220703125,10.3225341796875,-0.5221142578125,0.5125341796875
574,-0.6103515625,-0.3662109375,0.06103515625,10.308164062500001,-0.5316943359375,0.51732421875
575,-0.732421875,-0.42724609375,0.06103515625,10.3033740234375,-0.55564453125,0.4981640625
576,-0.54931640625,-0.3662109375,0.0,10.3225341796875,-0.5748046875,0.5221142578125
577,-0.54931640625,-0.42724609375,0.06103515625,10.3033740234375,-0.5460644531250001,0.5316943359375
578,-0.732421875,-0.42724609375,0.0,10.298583984375,-0.5508544921875,0.5316943359375
579,-0.732421875,-0.3662109375,0.0,10.3129541015625,-0.5604345703125,0.5221142578125
580,-0.48828125,-0.3662109375,0.0,10.308164062500001,-0.5604345703125,0.5221142578125
581,-0.54931640625,-0.30517578125,0.0,10.32732421875,-0.5508544921875,0.5029541015625
582,-0.54931640625,-0.3662109375,0.1220703125,10.317744140625,-0.536484375,0.5221142578125
583,-0.6103515625,-0.3662109375,0.1220703125,10.317744140625,-0.5460644531250001,0.5029541015625
584,-0.6103515625,-0.3662109375,0.06103515625,10.332114257812501,-0.5460644531250001,0.536484375
585,-0.54931640625,-0.3662109375,0.06103515625,10.308164062500001,-0.536484375,0.5412744140625
586,-0.6103515625,-0.3662109375,0.06103515625,10.308164062500001,-0.5125341796875,0.4742138671875
587,-0.67138671875,-0.3662109375,0.06103515625,10.3225341796875,-0.5125341796875,0.45026367187500005
588,-0.732421875,-0.3662109375,0.1220703125,10.308164062500001,-0.536484375,0.5077441406250001
589,-0.54931640625,-0.3662109375,0.06103515625,10.293793945312501,-0.5412744140625,0.5269042968750001
590,-0.48828125,-0.3662109375,0.1220703125,10.317744140625,-0.5412744140625,0.5125341796875
591,-0.6103515625,-0.244140625,0.0,10.317744140625,-0.5508544921875,0.48379394531250003
592,-0.6103515625,-0.30517578125,0.0,10.332114257812501,-0.5460644531250001,0.536484375
593,-0.6103515625,-0.3662109375,0.0,10.3129541015625,-0.5460644531250001,0.5221142578125
594,-0.6103515625,-0.42724609375,0.06103515625,10.308164062500001,-0.5652246093750001,0.5077441406250001
595,-0.48828125,-0.42724609375,0.06103515625,10.293793945312501,-0.55564453125,0.5508544921875
596,-0.54931640625,-0.42724609375,0.0,10.317744140625,-0.5460644531250001,0.51732421875
597,-0.6103515625,-0.42724609375,0.06103515625,10.3416943359375,-0.5604345703125,0.5029541015625
598,-0.67138671875,-0.42724609375,0.06103515625,10.3225341796875,-0.5412744140625,0.51732421875
599,-0.6103515625,-0.30517578125,0.1220703125,10.3033740234375,-0.5508544921875,0.536484375
600,-0.54931640625,-0.30517578125,0.06103515625,10.293793945312501,-0.55564453125,0.4981640625
601,-0.54931640625,-0.42724609375,0.06103515625,10.317744140625,-0.5412744140625,0.5077441406250001
602,-0.6103515625,-0.30517578125,0.06103515625,10.3129541015625,-0.5316943359375,0.5125341796875
603,-0.6103515625,-0.30517578125,0.06103515625,10.298583984375,-0.5269042968750001,0.49337402343750003
604,-0.54931640625,-0.30517578125,0.06103515625,10.293793945312501,-0.5412744140625,0.4981640625
605,-0.54931640625,-0.48828125,0.1220703125,10.3033740234375,-0.536484375,0.4981640625
606,-0.6103515625,-0.3662109375,0.06103515625,10.3129541015625,-0.5221142578125,0.48379394531250003
607,-0.54931640625,-0.244140625,0.0,10.32732421875,-0.5460644531250001,0.49337402343750003
608,-0.732421875,-0.30517578125,0.06103515625,10.317744140625,-0.5652246093750001,0.5221142578125
609,-0.67138671875,-0.30517578125,0.0,10.3033740234375,-0.5604345703125,0.5125341796875
610,-0.6103515625,-0.3662109375,0.06103515625,10.308164062500001,-0.5604345703125,0.5125341796875
611,-0.54931640625,-0.3662109375,0.1220703125,10.317744140625,-0.55564453125,0.488583984375
612,-0.732421875,-0.30517578125,0.06103515625,10.3129541015625,-0.5508544921875,0.5125341796875
613,-0.67138671875,-0.3662109375,0.1220703125,10.32732421875,-0.5604345703125,0.5029541015625
614,-0.54931640625,-0.3662109375,0.1220703125,10.293793945312501,-0.5604345703125,0.488583984375
615,-0.6103515625,-0.30517578125,0.0,10.308164062500001,-0.55564453125,0.536484375
616,-0.6103515625,-0.3662109375,0.06103515625,10.308164062500001,-0.5604345703125,0.5221142578125
617,-0.6103515625,-0.3662109375,0.06103515625,10.3033740234375,-0.55564453125,0.5125341796875
618,-0.48828125,-0.30517578125,0.06103515625,10.3033740234375,-0.5412744140625,0.5125341796875
619,-0.6103515625,-0.3662109375,0.1220703125,10.317744140625,-0.5508544921875,0.4981640625
620,-0.54931640625,-0.3662109375,0.06103515625,10.32732421875,-0.536484375,0.5125341796875
621,-0.54931640625,-0.30517578125,0.06103515625,10.3129541015625,-0.5460644531250001,0.49337402343750003
622,-0.6103515625,-0.30517578125,0.06103515625,10.3129541015625,-0.5460644531250001,0.488583984375
623,-0.54931640625,-0.244140625,0.06103515625,10.346484375000001,-0.55564453125,0.469423828125
624,-0.67138671875,-0.3662109375,0.06103515625,10.32732421875,-0.5412744140625,0.48379394531250003
625,-0.67138671875,-0.3662109375,0.06103515625,10.3225341796875,-0.5221142578125,0.488583984375
626,-0.54931640625,-0.42724609375,0.1220703125,10.3512744140625,-0.5316943359375,0.47900390625
627,-0.48828125,-0.244140625,0.18310546875,10.317744140625,-0.5748046875,0.49337402343750003
628,-0.54931640625,-0.3662109375,0.1220703125,10.3129541015625,-0.5604345703125,0.5125341796875
629,-0.54931640625,-0.3662109375,0.06103515625,10.3225341796875,-0.536484375,0.5221142578125
630,-0.54931640625,-0.3662109375,0.1220703125,10.293793945312501,-0.5700146484375,0.5412744140625
631,-0.54931640625,-0.3662109375,0.06103515625,10.293793945312501,-0.5795947265625,0.5412744140625
632,-0.54931640625,-0.3662109375,0.06103515625,10.3225341796875,-0.5652246093750001,0.5029541015625
633,-0.6103515625,-0.3662109375,0.06103515625,10.317744140625,-0.5460644531250001,0.5221142578125
634,-0.54931640625,-0.3662109375,0.06103515625,10.308164062500001,-0.5412744140625,0.47900390625
635,-0.54931640625,-0.3662109375,0.06103515625,10.308164062500001,-0.5412744140625,0.5029541015625
636,-0.6103515625,-0.30517578125,0.0,10.3225341796875,-0.5412744140625,0.49337402343750003
637,-0.6103515625,-0.42724609375,0.06103515625,10.3129541015625,-0.536484375,0.4981640625
638,-0.67138671875,-0.3662109375,0.1220703125,10.3033740234375,-0.5077441406250001,0.49337402343750003
639,-0.6103515625,-0.30517578125,0.1220703125,10.317744140625,-0.536484375,0.4981640625
640,-0.54931640625,-0.3662109375,0.06103515625,10.332114257812501,-0.5508544921875,0.488583984375
641,-0.6103515625,-0.42724609375,0.06103515625,10.293793945312501,-0.5221142578125,0.488583984375
642,-0.48828125,-0.3662109375,0.0,10.298583984375,-0.51732421875,0.45984375
643,-0.48828125,-0.42724609375,0.06103515625,10.298583984375,-0.5316943359375,0.5125341796875
644,-0.6103515625,-0.3662109375,0.06103515625,10.3129541015625,-0.5460644531250001,0.51732421875
645,-0.67138671875,-0.3662109375,0.0,10.3129541015625,-0.5316943359375,0.4981640625
646,-0.54931640625,-0.3662109375,0.0,10.336904296875,-0.5508544921875,0.5316943359375
647,-0.6103515625,-0.30517578125,0.06103515625,10.298583984375,-0.5652246093750001,0.51732421875
648,-0.6103515625,-0.3662109375,0.1220703125,10.2842138671875,-0.55564453125,0.51732421875
649,-0.6103515625,-0.3662109375,0.1220703125,10.317744140625,-0.55564453125,0.51732421875
650,-0.67138671875,-0.30517578125,0.06103515625,10.317744140625,-0.5652246093750001,0.4981640625
651,-0.48828125,-0.30517578125,0.1220703125,10.317744140625,-0.55564453125,0.5221142578125
652,-0.54931640625,-0.30517578125,0.06103515625,10.3225341796875,-0.5460644531250001,0.5269042968750001
653,-0.54931640625,-0.3662109375,0.0,10.3129541015625,-0.5460644531250001,0.49337402343750003
654,-0.6103515625,-0.42724609375,0.1220703125,10.336904296875,-0.55564453125,0.5029541015625
655,-0.54931640625,-0.3662109375,0.06103515625,10.317744140625,-0.5508544921875,0.488583984375
656,-0.67138671875,-0.3662109375,0.06103515625,10.3225341796875,-0.5316943359375,0.488583984375
657,-0.6103515625,-0.3662109375,0.0,10.298583984375,-0.5412744140625,0.5029541015625
658,-0.67138671875,-0.3662109375,0.1220703125,10.3033740234375,-0.5221142578125,0.4981640625
659,-0.6103515625,-0.3662109375,0.1220703125,10.317744140625,-0.5077441406250001,0.5029541015625
660,-0.54931640625,-0.3662109375,0.0,10.293793945312501,-0.5269042968750001,0.48379394531250003
661,-0.6103515625,-0.3662109375,-0.06103515625,10.28900390625,-0.5508544921875,0.488583984375
662,-0.67138671875,-0.3662109375,0.0,10.298583984375,-0.5412744140625,0.4981640625
663,-0.67138671875,-0.3662109375,0.1220703125,10.3129541015625,-0.5604345703125,0.4981640625
664,-0.67138671875,-0.42724609375,0.1220703125,10.336904296875,-0.5412744140625,0.5077441406250001
665,-0.6103515625,-0.244140625,0.06103515625,10.3225341796875,-0.55564453125,0.5221142578125
666,-0.6103515625,-0.30517578125,0.0,10.308164062500001,-0.5748046875,0.5412744140625
667,-0.67138671875,-0.42724609375,0.06103515625,10.3225341796875,-0.5700146484375,0.5269042968750001
668,-0.6103515625,-0.3662109375,0.1220703125,10.3225341796875,-0.5508544921875,0.5508544921875
669,-0.6103515625,-0.3662109375,0.06103515625,10.3033740234375,-0.5508544921875,0.5269042968750001
670,-0.67138671875,-0.42724609375,0.06103515625,10.3129541015625,-0.5412744140625,0.5029541015625
671,-0.54931640625,-0.42724609375,0.0,10.3033740234375,-0.5700146484375,0.55564453125
672,-0.48828125,-0.3662109375,0.06103515625,10.28900390625,-0.5460644531250001,0.5221142578125
673,-0.6103515625,-0.3662109375,0.1220703125,10.317744140625,-0.55564453125,0.5029541015625
674,-0.67138671875,-0.48828125,0.1220703125,10.332114257812501,-0.55564453125,0.5029541015625
675,-0.54931640625,-0.3662109375,0.06103515625,10.317744140625,-0.5412744140625,0.48379394531250003
676,-0.67138671875,-0.3662109375,0.0,10.308164062500001,-0.5412744140625,0.488583984375
677,-0.67138671875,-0.42724609375,0.1220703125,10.298583984375,-0.5460644531250001,0.49337402343750003
678,-0.6103515625,-0.42724609375,0.1220703125,10.3033740234375,-0.536484375,0.5412744140625
679,-0.6103515625,-0.3662109375,0.06103515625,10.332114257812501,-0.51732421875,0.49337402343750003
680,-0.54931640625,-0.30517578125,-0.06103515625,10.308164062500001,-0.536484375,0.4742138671875
681,-0.6103515625,-0.30517578125,0.0,10.308164062500001,-0.5508544921875,0.5221142578125
682,-0.6103515625,-0.3662109375,0.1220703125,10.332114257812501,-0.55564453125,0.5029541015625
683,-0.67138671875,-0.3662109375,0.06103515625,10.3225341796875,-0.5508544921875,0.5508544921875
684,-0.6103515625,-0.3662109375,0.06103515625,10.298583984375,-0.55564453125,0.5077441406250001
685,-0.54931640625,-0.42724609375,0.0,10.3129541015625,-0.5604345703125,0.4981640625
686,-0.54931640625,-0.3662109375,0.0,10.336904296875,-0.5460644531250001,0.5029541015625
687,-0.6103515625,-0.3662109375,0.06103515625,10.298583984375,-0.5412744140625,0.5125341796875
688,-0.6103515625,-0.42724609375,0.1220703125,10.317744140625,-0.5460644531250001,0.51732421875
689,-0.732421875,-0.30517578125,0.06103515625,10.3129541015625,-0.5412744140625,0.5029541015625
690,-0.67138671875,-0.3662109375,0.06103515625,10.308164062500001,-0.5412744140625,0.4981640625
691,-0.54931640625,-0.42724609375,0.1220703125,10.3129541015625,-0.5460644531250001,0.5077441406250001
692,-0.6103515625,-0.48828125,0.06103515625,10.332114257812501,-0.5316943359375,0.47900390625
693,-0.6103515625,-0.3662109375,0.06103515625,10.3129541015625,-0.5316943359375,0.49337402343750003
694,-0.6103515625,-0.3662109375,0.06103515625,10.3225341796875,-0.5460644531250001,0.49337402343750003
695,-0.6103515625,-0.3662109375,0.06103515625,10.308164062500001,-0.5316943359375,0.5077441406250001
696,-0.54931640625,-0.3662109375,0.1220703125,10.317744140625,-0.5460644531250001,0.49337402343750003
697,-0.67138671875,-0.30517578125,0.06103515625,10.308164062500001,-0.5508544921875,0.488583984375
698,-0.6103515625,-0.3662109375,0.06103515625,10.298583984375,-0.5269042968750001,0.5221142578125
699,-0.6103515625,-0.30517578125,0.1220703125,10.3225341796875,-0.5269042968750001,0.51732421875
700,-0.54931640625,-0.3662109375,0.06103515625,10.317744140625,-0.55564453125,0.5029541015625
701,-0.54931640625,-0.42724609375,0.06103515625,10.3033740234375,-0.55564453125,0.4981640625
702,-0.67138671875,-0.30517578125,0.1220703125,10.308164062500001,-0.5508544921875,0.5508544921875
703,-0.54931640625,-0.30517578125,0.06103515625,10.317744140625,-0.5508544921875,0.55564453125
704,-0.54931640625,-0.3662109375,0.0,10.3129541015625,-0.5652246093750001,0.51732421875
705,-0.6103515625,-0.42724609375,0.06103515625,10.3129541015625,-0.55564453125,0.5316943359375
706,-0.54931640625,-0.30517578125,0.06103515625,10.317744140625,-0.5748046875,0.55564453125
707,-0.54931640625,-0.42724609375,0.0,10.308164062500001,-0.55564453125,0.5269042968750001
708,-0.54931640625,-0.30517578125,0.06103515625,10.3129541015625,-0.55564453125,0.5029541015625
709,-0.6103515625,-0.30517578125,0.06103515625,10.3033740234375,-0.5508544921875,0.5029541015625
710,-0.732421875,-0.3662109375,0.06103515625,10.3129541015625,-0.5460644531250001,0.5125341796875
711,-0.67138671875,-0.30517578125,0.06103515625,10.308164062500001,-0.536484375,0.5125341796875
712,-0.54931640625,-0.3662109375,0.1220703125,10.3033740234375,-0.5269042968750001,0.48379394531250003
713,-0.54931640625,-0.3662109375,0.0,10.3033740234375,-0.5412744140625,0.488583984375
714,-0.67138671875,-0.3662109375,0.0,10.298583984375,-0.5316943359375,0.5221142578125
715,-0.6103515625,-0.3662109375,0.0,10.3225341796875,-0.5269042968750001,0.5029541015625
716,-0.6103515625,-0.3662109375,0.06103515625,10.3416943359375,-0.5508544921875,0.5077441406250001
717,-0.6103515625,-0.3662109375,0.0,10.317744140625,-0.5604345703125,0.5316943359375
718,-0.6103515625,-0.3662109375,0.06103515625,10.3416943359375,-0.5604345703125,0.49337402343750003
719,-0.54931640625,-0.42724609375,0.06103515625,10.336904296875,-0.55564453125,0.5125341796875
720,-0.6103515625,-0.3662109375,0.0,10.3225341796875,-0.5604345703125,0.5125341796875
721,-0.54931640625,-0.3662109375,0.06103515625,10.3033740234375,-0.5748046875,0.5125341796875
722,-0.54931640625,-0.3662109375,0.0,10.3033740234375,-0.5508544921875,0.49337402343750003
723,-0.6103515625,-0.3662109375,0.1220703125,10.3129541015625,-0.5460644531250001,0.5077441406250001
724,-0.48828125,-0.30517578125,0.06103515625,10.3033740234375,-0.5604345703125,0.5316943359375
725,-0.48828125,-0.42724609375,0.1220703125,10.3129541015625,-0.536484375,0.5125341796875
726,-0.6103515625,-0.3662109375,0.1220703125,10.298583984375,-0.536484375,0.5077441406250001
727,-0.67138671875,-0.3662109375,0.06103515625,10.3129541015625,-0.5269042968750001,0.5269042968750001
728,-0.54931640625,-0.3662109375,0.1220703125,10.32732421875,-0.5316943359375,0.5029541015625
729,-0.6103515625,-0.244140625,0.1220703125,10.298583984375,-0.536484375,0.5029541015625
730,-0.67138671875,-0.30517578125,0.06103515625,10.32732421875,-0.5269042968750001,0.47900390625
731,-0.54931640625,-0.42724609375,0.06103515625,10.3129541015625,-0.5460644531250001,0.488583984375
732,-0.54931640625,-0.42724609375,0.06103515625,10.3129541015625,-0.5412744140625,0.5125341796875
733,-0.6103515625,-0.48828125,0.18310546875,10.3033740234375,-0.5269042968750001,0.5029541015625
734,-0.54931640625,-0.3662109375,0.06103515625,10.293793945312501,-0.536484375,0.5077441406250001
735,-0.54931640625,-0.30517578125,0.06103515625,10.293793945312501,-0.55564453125,0.5269042968750001
736,-0.6103515625,-0.30517578125,0.06103515625,10.332114257812501,-0.5604345703125,0.536484375
737,-0.67138671875,-0.42724609375,0.06103515625,10.293793945312501,-0.5508544921875,0.5316943359375
738,-0.54931640625,-0.42724609375,0.0,10.308164062500001,-0.536484375,0.4981640625
739,-0.54931640625,-0.42724609375,0.06103515625,10.3033740234375,-0.536484375,0.5412744140625
740,-0.54931640625,-0.42724609375,0.18310546875,10.3033740234375,-0.5460644531250001,0.5269042968750001
741,-0.54931640625,-0.30517578125,0.1220703125,10.3225341796875,-0.5604345703125,0.51732421875
742,-0.54931640625,-0.244140625,0.0,10.298583984375,-0.5748046875,0.5077441406250001
743,-0.54931640625,-0.42724609375,0.06103515625,10.336904296875,-0.536484375,0.51732421875
744,-0.6103515625,-0.42724609375,0.06103515625,10.3416943359375,-0.536484375,0.49337402343750003
745,-0.6103515625,-0.42724609375,0.06103515625,10.308164062500001,-0.5508544921875,0.5077441406250001
746,-0.67138671875,-0.42724609375,0.1220703125,10.308164062500001,-0.536484375,0.5316943359375
747,-0.6103515625,-0.3662109375,0.06103515625,10.3129541015625,-0.5412744140625,0.5221142578125
748,-0.6103515625,-0.3662109375,0.06103515625,10.3129541015625,-0.536484375,0.4742138671875
749,-0.48828125,-0.30517578125,0.0,10.298583984375,-0.5460644531250001,0.5269042968750001
750,-0.54931640625,-0.3662109375,0.1220703125,10.3129541015625,-0.5460644531250001,0.5077441406250001
751,-0.6103515625,-0.42724609375,0.06103515625,10.332114257812501,-0.5460644531250001,0.51732421875
752,-0.67138671875,-0.3662109375,0.06103515625,10.3225341796875,-0.5508544921875,0.5460644531250001
753,-0.6103515625,-0.3662109375,0.0,10.317744140625,-0.5508544921875,0.5077441406250001
754,-0.6103515625,-0.3662109375,0.06103515625,10.32732421875,-0.5508544921875,0.5077441406250001
755,-0.54931640625,-0.42724609375,0.1220703125,10.3033740234375,-0.5604345703125,0.5077441406250001
756,-0.54931640625,-0.42724609375,0.0,10.28900390625,-0.5604345703125,0.49337402343750003
757,-0.6103515625,-0.3662109375,0.06103515625,10.308164062500001,-0.5604345703125,0.49337402343750003
758,-0.54931640625,-0.30517578125,0.0,10.3129541015625,-0.55564453125,0.5125341796875
759,-0.54931640625,-0.3662109375,0.06103515625,10.308164062500001,-0.55564453125,0.5221142578125
760,-0.6103515625,-0.42724609375,0.06103515625,10.317744140625,-0.5508544921875,0.51732421875
761,-0.6103515625,-0.3662109375,0.1220703125,10.279423828125001,-0.536484375,0.51732421875
762,-0.54931640625,-0.30517578125,0.1220703125,10.298583984375,-0.5460644531250001,0.4981640625
763,-0.48828125,-0.30517578125,0.0,10.332114257812501,-0.5412744140625,0.469423828125
764,-0.54931640625,-0.3662109375,0.0,10.3129541015625,-0.55564453125,0.5029541015625
765,-0.67138671875,-0.42724609375,0.06103515625,10.3225341796875,-0.536484375,0.49337402343750003
766,-0.67138671875,-0.3662109375,0.06103515625,10.308164062500001,-0.5221142578125,0.488583984375
767,-0.54931640625,-0.3662109375,0.0,10.3129541015625,-0.5269042968750001,0.5221142578125
768,-0.54931640625,-0.42724609375,-0.06103515625,10.308164062500001,-0.5316943359375,0.4981640625
769,-0.54931640625,-0.3662109375,0.0,10.298583984375,-0.5316943359375,0.5125341796875
770,-0.6103515625,-0.3662109375,0.0,10.3225341796875,-0.5460644531250001,0.5029541015625
771,-0.6103515625,-0.42724609375,0.06103515625,10.332114257812501,-0.536484375,0.488583984375
772,-0.6103515625,-0.3662109375,0.1220703125,10.317744140625,-0.5460644531250001,0.49337402343750003
773,-0.48828125,-0.42724609375,0.06103515625,10.3033740234375,-0.5460644531250001,0.4981640625
774,-0.54931640625,-0.3662109375,0.0,10.308164062500001,-0.5460644531250001,0.5077441406250001
775,-0.54931640625,-0.3662109375,0.06103515625,10.3033740234375,-0.5508544921875,0.5316943359375
776,-0.6103515625,-0.3662109375,0.06103515625,10.3033740234375,-0.55564453125,0.4981640625
777,-0.54931640625,-0.30517578125,0.0,10.298583984375,-0.5412744140625,0.5029541015625
778,-0.6103515625,-0.244140625,0.06103515625,10.28900390625,-0.5316943359375,0.5029541015625
779,-0.6103515625,-0.3662109375,0.06103515625,10.298583984375,-0.5460644531250001,0.4981640625
780,-0.54931640625,-0.3662109375,0.06103515625,10.308164062500001,-0.5508544921875,0.48379394531250003
781,-0.54931640625,-0.3662109375,0.06103515625,10.3129541015625,-0.5508544921875,0.469423828125
782,-0.6103515625,-0.3662109375,0.0,10.32732421875,-0.5508544921875,0.5029541015625
783,-0.6103515625,-0.3662109375,0.06103515625,10.3033740234375,-0.5316943359375,0.51732421875
784,-0.54931640625,-0.42724609375,0.1220703125,10.3129541015625,-0.5316943359375,0.5029541015625
785,-0.67138671875,-0.42724609375,0.1220703125,10.317744140625,-0.51732421875,0.4742138671875
786,-0.6103515625,-0.3662109375,0.0,10.3033740234375,-0.536484375,0.4742138671875
787,-0.54931640625,-0.42724609375,0.1220703125,10.32732421875,-0.51732421875,0.51732421875
788,-0.6103515625,-0.42724609375,0.06103515625,10.298583984375,-0.536484375,0.5269042968750001
789,-0.67138671875,-0.42724609375,0.06103515625,10.317744140625,-0.55564453125,0.4981640625
790,-0.6103515625,-0.30517578125,0.06103515625,10.298583984375,-0.5604345703125,0.488583984375
791,-0.54931640625,-0.3662109375,0.06103515625,10.293793945312501,-0.55564453125,0.5077441406250001
792,-0.54931640625,-0.3662109375,0.1220703125,10.332114257812501,-0.5412744140625,0.5269042968750001
793,-0.732421875,-0.42724609375,0.06103515625,10.3225341796875,-0.536484375,0.47900390625
794,-0.6103515625,-0.3662109375,0.06103515625,10.298583984375,-0.5460644531250001,0.51732421875
795,-0.54931640625,-0.42724609375,-0.06103515625,10.317744140625,-0.5460644531250001,0.536484375
796,-0.54931640625,-0.30517578125,0.06103515625,10.3129541015625,-0.5652246093750001,0.536484375
797,-0.6103515625,-0.3662109375,0.06103515625,10.298583984375,-0.55564453125,0.5077441406250001
798,-0.54931640625,-0.244140625,-0.06103515625,10.293793945312501,-0.536484375,0.4981640625
799,-0.48828125,-0.42724609375,0.06103515625,10.308164062500001,-0.5604345703125,0.4981640625
800,-0.48828125,-0.3662109375,0.1220703125,10.336904296875,-0.5604345703125,0.49337402343750003
801,-0.54931640625,-0.42724609375,0.06103515625,10.3416943359375,-0.5460644531250001,0.5077441406250001
802,-0.6103515625,-0.3662109375,0.06103515625,10.332114257812501,-0.5412744140625,0.488583984375
803,-0.54931640625,-0.3662109375,0.0,10.3129541015625,-0.536484375,0.488583984375
804,-0.6103515625,-0.3662109375,0.06103515625,10.308164062500001,-0.5316943359375,0.5077441406250001
805,-0.6103515625,-0.3662109375,0.06103515625,10.3225341796875,-0.536484375,0.51732421875
806,-0.54931640625,-0.42724609375,0.0,10.32732421875,-0.536484375,0.4981640625
807,-0.6103515625,-0.42724609375,0.06103515625,10.32732421875,-0.5460644531250001,0.48379394531250003
808,-0.6103515625,-0.3662109375,0.0,10.308164062500001,-0.5460644531250001,0.5316943359375
809,-0.54931640625,-0.30517578125,0.0,10.298583984375,-0.5412744140625,0.5077441406250001
810,-0.54931640625,-0.42724609375,0.06103515625,10.298583984375,-0.5604345703125,0.49337402343750003
811,-0.6103515625,-0.3662109375,0.1220703125,10.336904296875,-0.55564453125,0.5125341796875
812,-0.54931640625,-0.30517578125,0.06103515625,10.336904296875,-0.5795947265625,0.5316943359375
813,-0.54931640625,-0.244140625,0.0,10.3033740234375,-0.5795947265625,0.536484375
814,-0.54931640625,-0.3662109375,0.0,10.3225341796875,-0.55564453125,0.5029541015625
815,-0.54931640625,-0.3662109375,0.0,10.32732421875,-0.536484375,0.5077441406250001
816,-0.6103515625,-0.3662109375,-0.06103515625,10.32732421875,-0.5269042968750001,0.49337402343750003
817,-0.67138671875,-0.30517578125,0.0,10.3129541015625,-0.5221142578125,0.5125341796875
818,-0.6103515625,-0.30517578125,0.06103515625,10.3033740234375,-0.5316943359375,0.5077441406250001
819,-0.6103515625,-0.3662109375,-0.06103515625,10.3129541015625,-0.5460644531250001,0.5221142578125
820,-0.54931640625,-0.3662109375,0.06103515625,10.298583984375,-0.536484375,0.5029541015625
821,-0.6103515625,-0.30517578125,0.06103515625,10.332114257812501,-0.5221142578125,0.48379394531250003
822,-0.54931640625,-0.3662109375,0.0,10.32732421875,-0.5316943359375,0.5077441406250001
823,-0.6103515625,-0.42724609375,0.06103515625,10.2842138671875,-0.5508544921875,0.5077441406250001
824,-0.54931640625,-0.30517578125,0.06103515625,10.308164062500001,-0.5269042968750001,0.488583984375
825,-0.6103515625,-0.3662109375,0.06103515625,10.3225341796875,-0.5221142578125,0.536484375
826,-0.67138671875,-0.42724609375,0.06103515625,10.317744140625,-0.5412744140625,0.49337402343750003
827,-0.54931640625,-0.3662109375,0.18310546875,10.3129541015625,-0.55564453125,0.5029541015625
828,-0.54931640625,-0.3662109375,0.06103515625,10.3129541015625,-0.5604345703125,0.5077441406250001
829,-0.6103515625,-0.3662109375,0.0,10.3129541015625,-0.536484375,0.5221142578125
830,-0.54931640625,-0.42724609375,0.06103515625,10.3225341796875,-0.536484375,0.5029541015625
831,-0.6103515625,-0.30517578125,0.06103515625,10.332114257812501,-0.5604345703125,0.5077441406250001
832,-0.67138671875,-0.30517578125,0.06103515625,10.317744140625,-0.5412744140625,0.4981640625
833,-0.54931640625,-0.42724609375,0.06103515625,10.28900390625,-0.5460644531250001,0.4981640625
834,-0.67138671875,-0.42724609375,0.06103515625,10.298583984375,-0.55564453125,0.5316943359375
835,-0.54931640625,-0.3662109375,0.06103515625,10.3129541015625,-0.5316943359375,0.5508544921875
836,-0.6103515625,-0.3662109375,0.06103515625,10.317744140625,-0.5316943359375,0.5269042968750001
837,-0.67138671875,-0.42724609375,0.1220703125,10.3225341796875,-0.5221142578125,0.5125341796875
838,-0.6103515625,-0.42724609375,0.1220703125,10.32732421875,-0.5269042968750001,0.5029541015625
839,-0.54931640625,-0.3662109375,0.06103515625,10.317744140625,-0.5508544921875,0.5221142578125
840,-0.67138671875,-0.3662109375,0.06103515625,10.3033740234375,-0.5316943359375,0.5125341796875
841,-0.732421875,-0.3662109375,0.06103515625,10.317744140625,-0.5508544921875,0.48379394531250003
842,-0.6103515625,-0.3662109375,0.0,10.298583984375,-0.5412744140625,0.5269042968750001
843,-0.54931640625,-0.3662109375,0.1220703125,10.317744140625,-0.536484375,0.5316943359375
844,-0.6103515625,-0.3662109375,0.1220703125,10.298583984375,-0.5508544921875,0.51732421875
845,-0.67138671875,-0.3662109375,0.1220703125,10.3033740234375,-0.55564453125,0.49337402343750003
846,-0.6103515625,-0.3662109375,0.06103515625,10.3225341796875,-0.55564453125,0.5316943359375
847,-0.6103515625,-0.42724609375,0.06103515625,10.317744140625,-0.55564453125,0.5029541015625
848,-0.6103515625,-0.42724609375,0.1220703125,10.346484375000001,-0.5604345703125,0.4981640625
849,-0.67138671875,-0.42724609375,0.1220703125,10.317744140625,-0.5412744140625,0.5460644531250001
850,-0.54931640625,-0.3662109375,0.06103515625,10.298583984375,-0.5652246093750001,0.51732421875
851,-0.6103515625,-0.3662109375,0.06103515625,10.32732421875,-0.5604345703125,0.5125341796875
852,-0.67138671875,-0.42724609375,0.0,10.32732421875,-0.5316943359375,0.5125341796875
853,-0.6103515625,-0.42724609375,0.06103515625,10.3033740234375,-0.5508544921875,0.49337402343750003
854,-0.6103515625,-0.3662109375,0.1220703125,10.3033740234375,-0.5460644531250001,0.49337402343750003
855,-0.67138671875,-0.3662109375,0.06103515625,10.3225341796875,-0.5412744140625,0.47900390625
856,-0.54931640625,-0.3662109375,0.0,10.3033740234375,-0.5221142578125,0.4646337890625
857,-0.6103515625,-0.3662109375,0.06103515625,10.3129541015625,-0.5269042968750001,0.51732421875
858,-0.48828125,-0.3662109375,0.06103515625,10.3129541015625,-0.5412744140625,0.5269042968750001
859,-0.54931640625,-0.3662109375,0.0,10.336904296875,-0.536484375,0.51732421875
860,-0.6103515625,-0.3662109375,0.0,10.332114257812501,-0.5460644531250001,0.49337402343750003
861,-0.54931640625,-0.3662109375,0.06103515625,10.3225341796875,-0.5460644531250001,0.49337402343750003
862,-0.6103515625,-0.3662109375,0.06103515625,10.293793945312501,-0.5604345703125,0.536484375
863,-0.6103515625,-0.42724609375,0.1220703125,10.336904296875,-0.5652246093750001,0.5269042968750001
864,-0.54931640625,-0.3662109375,0.1220703125,10.3129541015625,-0.5508544921875,0.5269042968750001
865,-0.6103515625,-0.3662109375,0.06103515625,10.32732421875,-0.5508544921875,0.5077441406250001
866,-0.732421875,-0.3662109375,0.1220703125,10.308164062500001,-0.5460644531250001,0.48379394531250003
867,-0.6103515625,-0.30517578125,0.1220703125,10.332114257812501,-0.5604345703125,0.5029541015625
868,-0.6103515625,-0.3662109375,0.0,10.3416943359375,-0.5652246093750001,0.5125341796875
869,-0.6103515625,-0.3662109375,0.0,10.3129541015625,-0.55564453125,0.4981640625
870,-0.54931640625,-0.3662109375,0.06103515625,10.3033740234375,-0.5652246093750001,0.4981640625
871,-0.6103515625,-0.3662109375,0.1220703125,10.3225341796875,-0.5269042968750001,0.5029541015625
872,-0.54931640625,-0.3662109375,0.1220703125,10.3225341796875,-0.5460644531250001,0.49337402343750003
873,-0.67138671875,-0.3662109375,0.1220703125,10.317744140625,-0.5269042968750001,0.51732421875
874,-0.67138671875,-0.3662109375,0.0,10.32732421875,-0.5316943359375,0.51732421875
875,-0.54931640625,-0.3662109375,0.0,10.298583984375,-0.5604345703125,0.4981640625
876,-0.54931640625,-0.3662109375,0.1220703125,10.3129541015625,-0.5652246093750001,0.488583984375
877,-0.54931640625,-0.3662109375,0.06103515625,10.336904296875,-0.5460644531250001,0.4981640625
878,-0.54931640625,-0.3662109375,0.0,10.298583984375,-0.5460644531250001,0.4981640625
879,-0.48828125,-0.42724609375,0.06103515625,10.3033740234375,-0.55564453125,0.5077441406250001
880,-0.67138671875,-0.42724609375,0.06103515625,10.317744140625,-0.55564453125,0.5221142578125
881,-0.6103515625,-0.3662109375,0.06103515625,10.298583984375,-0.536484375,0.5029541015625
882,-0.48828125,-0.3662109375,0.06103515625,10.298583984375,-0.55564453125,0.536484375
883,-0.6103515625,-0.3662109375,0.06103515625,10.3033740234375,-0.5460644531250001,0.5077441406250001
884,-0.67138671875,-0.30517578125,0.1220703125,10.317744140625,-0.5604345703125,0.5221142578125
885,-0.6103515625,-0.3662109375,0.06103515625,10.32732421875,-0.55564453125,0.4981640625
886,-0.6103515625,-0.3662109375,0.1220703125,10.3129541015625,-0.5604345703125,0.5125341796875
887,-0.732421875,-0.3662109375,0.1220703125,10.3225341796875,-0.5748046875,0.5029541015625
888,-0.48828125,-0.3662109375,0.06103515625,10.3225341796875,-0.55564453125,0.49337402343750003
889,-0.54931640625,-0.3662109375,0.1220703125,10.317744140625,-0.5316943359375,0.5029541015625
890,-0.6103515625,-0.3662109375,0.1220703125,10.3033740234375,-0.5316943359375,0.49337402343750003
891,-0.6103515625,-0.30517578125,0.06103515625,10.317744140625,-0.5460644531250001,0.5269042968750001
892,-0.54931640625,-0.3662109375,-0.06103515625,10.336904296875,-0.5412744140625,0.469423828125
893,-0.6103515625,-0.30517578125,0.06103515625,10.32732421875,-0.5604345703125,0.488583984375
894,-0.6103515625,-0.42724609375,0.06103515625,10.3129541015625,-0.5412744140625,0.5221142578125
895,-0.6103515625,-0.42724609375,0.06103515625,10.28900390625,-0.5412744140625,0.5125341796875
896,-0.67138671875,-0.3662109375,0.1220703125,10.2842138671875,-0.5412744140625,0.51732421875
897,-0.48828125,-0.3662109375,0.06103515625,10.293793945312501,-0.55564453125,0.5316943359375
898,-0.6103515625,-0.42724609375,0.06103515625,10.317744140625,-0.5460644531250001,0.49337402343750003
899,-0.67138671875,-0.3662109375,0.06103515625,10.332114257812501,-0.536484375,0.4742138671875
900,-0.6103515625,-0.42724609375,0.06103515625,10.317744140625,-0.5700146484375,0.49337402343750003
901,-0.54931640625,-0.3662109375,0.1220703125,10.3225341796875,-0.5412744140625,0.5125341796875
902,-0.67138671875,-0.3662109375,0.06103515625,10.3129541015625,-0.5508544921875,0.5125341796875
903,-0.6103515625,-0.48828125,0.1220703125,10.332114257812501,-0.5508544921875,0.488583984375
904,-0.54931640625,-0.3662109375,0.0,10.308164062500001,-0.5412744140625,0.4981640625
905,-0.54931640625,-0.244140625,0.06103515625,10.3129541015625,-0.55564453125,0.536484375
906,-0.6103515625,-0.3662109375,0.06103515625,10.3033740234375,-0.55564453125,0.5029541015625
907,-0.54931640625,-0.3662109375,0.06103515625,10.298583984375,-0.55564453125,0.488583984375
908,-0.54931640625,-0.30517578125,0.06103515625,10.3225341796875,-0.5316943359375,0.51732421875
909,-0.67138671875,-0.30517578125,0.1220703125,10.317744140625,-0.536484375,0.5029541015625
910,-0.54931640625,-0.3662109375,0.18310546875,10.279423828125001,-0.5412744140625,0.49337402343750003
911,-0.54931640625,-0.3662109375,0.0,10.317744140625,-0.51732421875,0.47900390625
912,-0.6103515625,-0.3662109375,0.06103515625,10.298583984375,-0.536484375,0.49337402343750003
913,-0.54931640625,-0.30517578125,0.1220703125,10.3129541015625,-0.5508544921875,0.5221142578125
914,-0.67138671875,-0.3662109375,0.06103515625,10.3129541015625,-0.5508544921875,0.49337402343750003
915,-0.6103515625,-0.48828125,0.06103515625,10.32732421875,-0.5604345703125,0.5029541015625
916,-0.54931640625,-0.3662109375,0.0,10.3225341796875,-0.5652246093750001,0.5125341796875
917,-0.6103515625,-0.3662109375,0.06103515625,10.298583984375,-0.5652246093750001,0.49337402343750003
918,-0.67138671875,-0.30517578125,0.1220703125,10.32732421875,-0.5460644531250001,0.4742138671875
919,-0.6103515625,-0.42724609375,0.06103515625,10.3225341796875,-0.5460644531250001,0.4981640625
920,-0.6103515625,-0.30517578125,0.06103515625,10.308164062500001,-0.5508544921875,0.5269042968750001
921,-0.54931640625,-0.3662109375,0.06103515625,10.308164062500001,-0.5460644531250001,0.48379394531250003
922,-0.6103515625,-0.244140625,0.06103515625,10.298583984375,-0.5269042968750001,0.47900390625
923,-0.54931640625,-0.3662109375,0.1220703125,10.293793945312501,-0.5604345703125,0.49337402343750003
924,-0.54931640625,-0.3662109375,0.0,10.293793945312501,-0.55564453125,0.5269042968750001
925,-0.48828125,-0.3662109375,0.0,10.32732421875,-0.5221142578125,0.5125341796875
926,-0.6103515625,-0.3662109375,0.06103515625,10.3129541015625,-0.5269042968750001,0.4742138671875
927,-0.54931640625,-0.3662109375,0.06103515625,10.32732421875,-0.5269042968750001,0.51732421875
928,-0.54931640625,-0.30517578125,0.0,10.308164062500001,-0.5316943359375,0.5125341796875
929,-0.48828125,-0.30517578125,0.06103515625,10.3033740234375,-0.5316943359375,0.488583984375
930,-0.6103515625,-0.3662109375,0.06103515625,10.3129541015625,-0.51732421875,0.4981640625
931,-0.54931640625,-0.3662109375,0.18310546875,10.32732421875,-0.5269042968750001,0.4981640625
932,-0.54931640625,-0.30517578125,0.1220703125,10.298583984375,-0.5460644531250001,0.51732421875
933,-0.54931640625,-0.42724609375,0.0,10.308164062500001,-0.5508544921875,0.5029541015625
934,-0.6103515625,-0.42724609375,0.0,10.308164062500001,-0.5460644531250001,0.4981640625
935,-0.67138671875,-0.3662109375,0.06103515625,10.3225341796875,-0.55564453125,0.5077441406250001
936,-0.6103515625,-0.42724609375,0.1220703125,10.3129541015625,-0.536484375,0.4981640625
937,-0.6103515625,-0.3662109375,0.06103515625,10.3225341796875,-0.5460644531250001,0.488583984375
938,-0.6103515625,-0.42724609375,0.0,10.298583984375,-0.5700146484375,0.5221142578125
939,-0.6103515625,-0.3662109375,0.0,10.3033740234375,-0.5652246093750001,0.5221142578125
940,-0.67138671875,-0.3662109375,0.06103515625,10.308164062500001,-0.5269042968750001,0.5221142578125
941,-0.6103515625,-0.3662109375,0.0,10.298583984375,-0.5460644531250001,0.5125341796875
942,-0.67138671875,-0.42724609375,0.0,10.308164062500001,-0.55564453125,0.5316943359375
943,-0.6103515625,-0.3662109375,0.0,10.3033740234375,-0.536484375,0.488583984375
944,-0.6103515625,-0.3662109375,0.06103515625,10.308164062500001,-0.5508544921875,0.48379394531250003
945,-0.6103515625,-0.30517578125,0.1220703125,10.317744140625,-0.5412744140625,0.5125341796875
946,-0.54931640625,-0.3662109375,0.1220703125,10.308164062500001,-0.5508544921875,0.5077441406250001
947,-0.54931640625,-0.42724609375,0.1220703125,10.3129541015625,-0.5412744140625,0.4981640625
948,-0.67138671875,-0.30517578125,0.06103515625,10.3225341796875,-0.5412744140625,0.488583984375
949,-0.6103515625,-0.30517578125,0.0,10.3225341796875,-0.5604345703125,0.5029541015625
950,-0.6103515625,-0.3662109375,0.06103515625,10.32732421875,-0.55564453125,0.5125341796875
951,-0.6103515625,-0.42724609375,0.18310546875,10.317744140625,-0.5460644531250001,0.5269042968750001
952,-0.6103515625,-0.3662109375,0.1220703125,10.32732421875,-0.5316943359375,0.4981640625
953,-0.54931640625,-0.42724609375,0.06103515625,10.336904296875,-0.5604345703125,0.49337402343750003
954,-0.48828125,-0.42724609375,0.0,10.308164062500001,-0.5843847656250001,0.5029541015625
955,-0.6103515625,-0.3662109375,0.0,10.3033740234375,-0.55564453125,0.5077441406250001
956,-0.67138671875,-0.3662109375,0.06103515625,10.3225341796875,-0.55564453125,0.4981640625
957,-0.67138671875,-0.3662109375,0.0,10.3033740234375,-0.55564453125,0.5125341796875
958,-0.67138671875,-0.30517578125,0.0,10.3225341796875,-0.5604345703125,0.5077441406250001
959,-0.6103515625,-0.30517578125,0.06103515625,10.317744140625,-0.5508544921875,0.5125341796875
960,-0.6103515625,-0.3662109375,0.1220703125,10.308164062500001,-0.5316943359375,0.4981640625
961,-0.67138671875,-0.42724609375,0.06103515625,10.317744140625,-0.5460644531250001,0.5221142578125
962,-0.6103515625,-0.42724609375,0.06103515625,10.3033740234375,-0.5604345703125,0.5029541015625
963,-0.67138671875,-0.42724609375,0.1220703125,10.3033740234375,-0.5221142578125,0.48379394531250003
964,-0.54931640625,-0.3662109375,0.06103515625,10.32732421875,-0.5460644531250001,0.5316943359375
965,-0.54931640625,-0.30517578125,0.06103515625,10.3225341796875,-0.536484375,0.488583984375
966,-0.48828125,-0.42724609375,0.06103515625,10.317744140625,-0.5316943359375,0.469423828125
967,-0.48828125,-0.30517578125,0.0,10.3225341796875,-0.5460644531250001,0.4742138671875
968,-0.6103515625,-0.30517578125,0.0,10.317744140625,-0.5700146484375,0.51732421875
969,-0.732421875,-0.30517578125,0.1220703125,10.32732421875,-0.5316943359375,0.5508544921875
970,-0.6103515625,-0.30517578125,0.1220703125,10.3225341796875,-0.5316943359375,0.51732421875
971,-0.6103515625,-0.3662109375,0.06103515625,10.308164062500001,-0.5316943359375,0.488583984375
972,-0.54931640625,-0.42724609375,0.06103515625,10.3033740234375,-0.5460644531250001,0.51732421875
973,-0.6103515625,-0.30517578125,0.1220703125,10.298583984375,-0.5604345703125,0.5460644531250001
974,-0.48828125,-0.244140625,0.1220703125,10.332114257812501,-0.55564453125,0.5029541015625
975,-0.54931640625,-0.3662109375,0.0,10.3416943359375,-0.5795947265625,0.5077441406250001
976,-0.54931640625,-0.30517578125,0.06103515625,10.3033740234375,-0.5604345703125,0.5221142578125
977,-0.54931640625,-0.30517578125,0.0,10.32732421875,-0.536484375,0.5125341796875
978,-0.54931640625,-0.3662109375,0.06103515625,10.317744140625,-0.5412744140625,0.4981640625
979,-0.54931640625,-0.3662109375,0.06103515625,10.308164062500001,-0.55564453125,0.48379394531250003
980,-0.6103515625,-0.3662109375,0.06103515625,10.308164062500001,-0.55564453125,0.5125341796875
981,-0.67138671875,-0.3662109375,0.06103515625,10.293793945312501,-0.5316943359375,0.5125341796875
982,-0.6103515625,-0.3662109375,0.0,10.3033740234375,-0.5508544921875,0.488583984375
983,-0.54931640625,-0.42724609375,0.06103515625,10.317744140625,-0.5412744140625,0.5221142578125
984,-0.54931640625,-0.3662109375,0.0,10.32732421875,-0.5412744140625,0.4981640625
985,-0.54931640625,-0.3662109375,0.06103515625,10.332114257812501,-0.536484375,0.45984375
986,-0.54931640625,-0.30517578125,0.1220703125,10.317744140625,-0.55564453125,0.48379394531250003
987,-0.6103515625,-0.3662109375,0.06103515625,10.3033740234375,-0.55564453125,0.49337402343750003
988,-0.6103515625,-0.3662109375,0.1220703125,10.317744140625,-0.5508544921875,0.5316943359375
989,-0.67138671875,-0.3662109375,0.06103515625,10.3129541015625,-0.5652246093750001,0.51732421875
990,-0.6103515625,-0.3662109375,0.06103515625,10.3225341796875,-0.5652246093750001,0.5077441406250001
991,-0.54931640625,-0.3662109375,0.1220703125,10.332114257812501,-0.55564453125,0.5077441406250001
992,-0.54931640625,-0.3662109375,0.1220703125,10.332114257812501,-0.55564453125,0.5316943359375
993,-0.54931640625,-0.42724609375,0.0,10.308164062500001,-0.5508544921875,0.5221142578125
994,-0.6103515625,-0.3662109375,0.06103515625,10.32732421875,-0.5412744140625,0.5077441406250001
995,-0.54931640625,-0.42724609375,0.06103515625,10.298583984375,-0.536484375,0.5029541015625
996,-0.6103515625,-0.3662109375,0.0,10.298583984375,-0.5460644531250001,0.51732421875
997,-0.6103515625,-0.42724609375,0.06103515625,10.308164062500001,-0.55564453125,0.5125341796875
998,-0.54931640625,-0.30517578125,0.1220703125,10.3033740234375,-0.5412744140625,0.5077441406250001
999,-0.6103515625,-0.30517578125,0.0,10.298583984375,-0.536484375,0.5029541015625
1000,-0.67138671875,-0.30517578125,0.06103515625,10.317744140625,-0.5460644531250001,0.51732421875
1001,-0.54931640625,-0.3662109375,0.06103515625,10.293793945312501,-0.5412744140625,0.51732421875
1002,-0.48828125,-0.48828125,0.06103515625,10.2842138671875,-0.5460644531250001,0.536484375
1003,-0.54931640625,-0.30517578125,0.06103515625,10.308164062500001,-0.5508544921875,0.5125341796875
1004,-0.54931640625,-0.30517578125,0.06103515625,10.308164062500001,-0.5316943359375,0.51732421875
1005,-0.48828125,-0.30517578125,0.06103515625,10.3033740234375,-0.5508544921875,0.51732421875
1006,-0.67138671875,-0.42724609375,0.06103515625,10.3033740234375,-0.5460644531250001,0.49337402343750003
1007,-0.6103515625,-0.42724609375,0.1220703125,10.308164062500001,-0.5316943359375,0.5029541015625
1008,-0.6103515625,-0.3662109375,0.06103515625,10.3129541015625,-0.5460644531250001,0.5316943359375
1009,-0.6103515625,-0.3662109375,0.06103515625,10.32732421875,-0.5700146484375,0.5077441406250001
1010,-0.54931640625,-0.30517578125,0.0,10.308164062500001,-0.55564453125,0.5077441406250001
1011,-0.67138671875,-0.3662109375,0.0,10.308164062500001,-0.5316943359375,0.5029541015625
1012,-0.6103515625,-0.3662109375,0.06103515625,10.293793945312501,-0.536484375,0.5125341796875
1013,-0.6103515625,-0.3662109375,0.1220703125,10.32732421875,-0.5508544921875,0.49337402343750003
1014,-0.6103515625,-0.3662109375,0.1220703125,10.3416943359375,-0.5460644531250001,0.488583984375
1015,-0.6103515625,-0.3662109375,0.06103515625,10.298583984375,-0.5269042968750001,0.5269042968750001
1016,-0.67138671875,-0.3662109375,0.06103515625,10.317744140625,-0.55564453125,0.5269042968750001
1017,-0.48828125,-0.3662109375,0.06103515625,10.3225341796875,-0.55564453125,0.5125341796875
1018,-0.54931640625,-0.3662109375,0.1220703125,10.317744140625,-0.5508544921875,0.5221142578125
1019,-0.6103515625,-0.3662109375,0.0,10.298583984375,-0.5508544921875,0.5077441406250001
1020,-0.54931640625,-0.3662109375,0.0,10.317744140625,-0.5460644531250001,0.4742138671875
1021,-0.54931640625,-0.30517578125,0.06103515625,10.32732421875,-0.55564453125,0.5221142578125
1022,-0.54931640625,-0.30517578125,0.06103515625,10.317744140625,-0.55564453125,0.5077441406250001
1023,-0.48828125,-0.3662109375,0.06103515625,10.32732421875,-0.5604345703125,0.51732421875
1024,-0.6103515625,-0.3662109375,0.06103515625,10.3416943359375,-0.5460644531250001,0.51732421875
1025,-0.732421875,-0.3662109375,0.0,10.3129541015625,-0.5125341796875,0.5221142578125
1026,-0.6103515625,-0.3662109375,0.06103515625,10.298583984375,-0.5508544921875,0.5269042968750001
1027,-0.6103515625,-0.3662109375,0.0,10.293793945312501,-0.5460644531250001,0.51732421875
1028,-0.67138671875,-0.3662109375,0.0,10.3225341796875,-0.5508544921875,0.49337402343750003
1029,-0.6103515625,-0.3662109375,0.0,10.3129541015625,-0.5748046875,0.488583984375
1030,-0.67138671875,-0.3662109375,0.0,10.308164062500001,-0.5508544921875,0.49337402343750003
1031,-0.48828125,-0.30517578125,0.06103515625,10.317744140625,-0.5508544921875,0.51732421875
1032,-0.6103515625,-0.3662109375,0.0,10.308164062500001,-0.5508544921875,0.5125341796875
1033,-0.54931640625,-0.3662109375,0.0,10.3033740234375,-0.5460644531250001,0.48379394531250003
1034,-0.6103515625,-0.3662109375,0.0,10.293793945312501,-0.5316943359375,0.4646337890625
1035,-0.48828125,-0.3662109375,0.1220703125,10.317744140625,-0.5412744140625,0.5077441406250001
1036,-0.48828125,-0.30517578125,0.1220703125,10.317744140625,-0.5460644531250001,0.5029541015625
1037,-0.6103515625,-0.3662109375,-0.06103515625,10.293793945312501,-0.5652246093750001,0.49337402343750003
1038,-0.6103515625,-0.42724609375,0.0,10.308164062500001,-0.55564453125,0.48379394531250003
1039,-0.48828125,-0.3662109375,0.06103515625,10.317744140625,-0.55564453125,0.4981640625
1040,-0.6103515625,-0.3662109375,0.1220703125,10.3129541015625,-0.55564453125,0.5221142578125
1041,-0.54931640625,-0.42724609375,0.0,10.293793945312501,-0.5508544921875,0.5029541015625
1042,-0.6103515625,-0.48828125,0.06103515625,10.2842138671875,-0.5508544921875,0.4981640625
1043,-0.6103515625,-0.3662109375,0.06103515625,10.3033740234375,-0.5604345703125,0.51732421875
1044,-0.54931640625,-0.3662109375,0.06103515625,10.3129541015625,-0.55564453125,0.536484375
1045,-0.54931640625,-0.3662109375,0.06103515625,10.336904296875,-0.5412744140625,0.5412744140625
1046,-0.6103515625,-0.3662109375,0.06103515625,10.32732421875,-0.55564453125,0.5077441406250001
1047,-0.67138671875,-0.244140625,0.06103515625,10.3129541015625,-0.5460644531250001,0.4981640625
1048,-0.6103515625,-0.3662109375,0.0,10.317744140625,-0.536484375,0.48379394531250003
1049,-0.67138671875,-0.42724609375,0.06103515625,10.28900390625,-0.5412744140625,0.5125341796875
1050,-0.6103515625,-0.30517578125,0.06103515625,10.317744140625,-0.5508544921875,0.5125341796875
1051,-0.48828125,-0.3662109375,0.06103515625,10.32732421875,-0.5460644531250001,0.5029541015625
1052,-0.48828125,-0.3662109375,0.06103515625,10.298583984375,-0.5460644531250001,0.48379394531250003
1053,-0.54931640625,-0.30517578125,0.06103515625,10.2842138671875,-0.5652246093750001,0.5029541015625
1054,-0.54931640625,-0.3662109375,0.06103515625,10.2650537109375,-0.5412744140625,0.5316943359375
1055,-0.54931640625,-0.48828125,0.06103515625,10.293793945312501,-0.5412744140625,0.51732421875
1056,-0.67138671875,-0.3662109375,0.06103515625,10.3225341796875,-0.5412744140625,0.5029541015625
1057,-0.6103515625,-0.30517578125,0.06103515625,10.332114257812501,-0.5508544921875,0.5077441406250001
1058,-0.54931640625,-0.30517578125,0.0,10.32732421875,-0.5412744140625,0.51732421875
1059,-0.48828125,-0.30517578125,0.06103515625,10.3033740234375,-0.5412744140625,0.5604345703125
1060,-0.54931640625,-0.3662109375,0.06103515625,10.308164062500001,-0.5460644531250001,0.5269042968750001
1061,-0.48828125,-0.3662109375,0.06103515625,10.32732421875,-0.5460644531250001,0.5221142578125
1062,-0.6103515625,-0.42724609375,0.0,10.336904296875,-0.5604345703125,0.5077441406250001
1063,-0.6103515625,-0.30517578125,0.06103515625,10.3225341796875,-0.5508544921875,0.5029541015625
1064,-0.6103515625,-0.3662109375,0.1220703125,10.3129541015625,-0.5460644531250001,0.5125341796875
1065,-0.6103515625,-0.42724609375,0.06103515625,10.3129541015625,-0.5316943359375,0.536484375
1066,-0.6103515625,-0.3662109375,0.06103515625,10.317744140625,-0.5700146484375,0.49337402343750003
1067,-0.48828125,-0.30517578125,0.0,10.3129541015625,-0.5460644531250001,0.51732421875
1068,-0.54931640625,-0.3662109375,0.06103515625,10.298583984375,-0.5316943359375,0.5221142578125
1069,-0.67138671875,-0.30517578125,0.0,10.308164062500001,-0.5460644531250001,0.48379394531250003
1070,-0.6103515625,-0.30517578125,0.06103515625,10.317744140625,-0.5460644531250001,0.4742138671875
1071,-0.54931640625,-0.3662109375,0.06103515625,10.32732421875,-0.5460644531250001,0.4981640625
1072,-0.48828125,-0.30517578125,0.06103515625,10.28900390625,-0.536484375,0.5029541015625
1073,-0.6103515625,-0.3662109375,0.06103515625,10.298583984375,-0.5412744140625,0.536484375
1074,-0.67138671875,-0.30517578125,0.06103515625,10.298583984375,-0.5412744140625,0.5269042968750001
1075,-0.6103515625,-0.3662109375,0.06103515625,10.3033740234375,-0.5508544921875,0.51732421875
1076,-0.54931640625,-0.3662109375,0.0,10.32732421875,-0.5748046875,0.49337402343750003
1077,-0.6103515625,-0.42724609375,0.06103515625,10.308164062500001,-0.5460644531250001,0.49337402343750003
1078,-0.6103515625,-0.42724609375,0.06103515625,10.3129541015625,-0.5460644531250001,0.4981640625
1079,-0.54931640625,-0.3662109375,-0.06103515625,10.308164062500001,-0.55564453125,0.5125341796875
1080,-0.67138671875,-0.3662109375,-0.06103515625,10.3225341796875,-0.536484375,0.536484375
1081,-0.67138671875,-0.3662109375,0.06103515625,10.308164062500001,-0.5508544921875,0.488583984375
1082,-0.6103515625,-0.30517578125,0.1220703125,10.308164062500001,-0.5460644531250001,0.4981640625
1083,-0.54931640625,-0.30517578125,0.0,10.3129541015625,-0.5412744140625,0.51732421875
1084,-0.54931640625,-0.3662109375,0.06103515625,10.332114257812501,-0.536484375,0.5269042968750001
1085,-0.54931640625,-0.3662109375,0.0,10.3225341796875,-0.5412744140625,0.4981640625
1086,-0.732421875,-0.3662109375,0.06103515625,10.3129541015625,-0.5412744140625,0.5125341796875
1087,-0.6103515625,-0.3662109375,0.1220703125,10.3033740234375,-0.5508544921875,0.5125341796875
1088,-0.67138671875,-0.244140625,0.1220703125,10.336904296875,-0.55564453125,0.4981640625
1089,-0.6103515625,-0.3662109375,0.06103515625,10.32732421875,-0.55564453125,0.48379394531250003
1090,-0.6103515625,-0.42724609375,0.06103515625,10.3033740234375,-0.5604345703125,0.49337402343750003
1091,-0.67138671875,-0.3662109375,0.06103515625,10.336904296875,-0.5700146484375,0.4981640625
1092,-0.54931640625,-0.3662109375,0.0,10.336904296875,-0.5460644531250001,0.5029541015625
1093,-0.54931640625,-0.30517578125,0.06103515625,10.332114257812501,-0.5652246093750001,0.5029541015625
1094,-0.6103515625,-0.3662109375,0.1220703125,10.308164062500001,-0.5508544921875,0.5029541015625
1095,-0.6103515625,-0.30517578125,0.0,10.308164062500001,-0.5316943359375,0.5221142578125
1096,-0.6103515625,-0.3662109375,0.0,10.308164062500001,-0.5269042968750001,0.4981640625
1097,-0.6103515625,-0.30517578125,0.1220703125,10.308164062500001,-0.5460644531250001,0.49337402343750003
1098,-0.6103515625,-0.30517578125,0.0,10.317744140625,-0.5604345703125,0.51732421875
1099,-0.67138671875,-0.3662109375,0.06103515625,10.3129541015625,-0.5508544921875,0.5125341796875
1100,-0.67138671875,-0.3662109375,-0.06103515625,10.3033740234375,-0.55564453125,0.5125341796875
1101,-0.6103515625,-0.30517578125,0.0,10.308164062500001,-0.5460644531250001,0.51732421875
1102,-0.6103515625,-0.30517578125,0.1220703125,10.279423828125001,-0.5508544921875,0.5269042968750001
1103,-0.67138671875,-0.3662109375,0.1220703125,10.28900390625,-0.536484375,0.51732421875
1104,-0.48828125,-0.30517578125,0.0,10.336904296875,-0.5460644531250001,0.49337402343750003
1105,-0.6103515625,-0.3662109375,0.06103515625,10.3129541015625,-0.5316943359375,0.5077441406250001
1106,-0.54931640625,-0.30517578125,0.1220703125,10.308164062500001,-0.5460644531250001,0.5269042968750001
1107,-0.48828125,-0.30517578125,0.06103515625,10.3129541015625,-0.5460644531250001,0.5029541015625
1108,-0.6103515625,-0.30517578125,0.06103515625,10.28900390625,-0.5316943359375,0.51732421875
1109,-0.54931640625,-0.30517578125,0.06103515625,10.3225341796875,-0.536484375,0.5029541015625
1110,-0.54931640625,-0.42724609375,0.1220703125,10.332114257812501,-0.5604345703125,0.47900390625
1111,-0.6103515625,-0.30517578125,0.1220703125,10.308164062500001,-0.5460644531250001,0.48379394531250003
1112,-0.54931640625,-0.3662109375,0.06103515625,10.317744140625,-0.5412744140625,0.51732421875
1113,-0.6103515625,-0.3662109375,0.0,10.3225341796875,-0.5508544921875,0.5221142578125
1114,-0.6103515625,-0.42724609375,0.06103515625,10.3129541015625,-0.5652246093750001,0.5269042968750001
1115,-0.67138671875,-0.42724609375,0.06103515625,10.308164062500001,-0.5508544921875,0.5029541015625
1116,-0.67138671875,-0.3662109375,0.0,10.32732421875,-0.55564453125,0.5077441406250001
1117,-0.48828125,-0.30517578125,0.0,10.32732421875,-0.55564453125,0.5029541015625
1118,-0.54931640625,-0.3662109375,0.06103515625,10.3225341796875,-0.5460644531250001,0.4981640625
1119,-0.54931640625,-0.30517578125,0.06103515625,10.317744140625,-0.5460644531250001,0.5029541015625
1120,-0.48828125,-0.30517578125,0.06103515625,10.3225341796875,-0.5460644531250001,0.5125341796875
1121,-0.6103515625,-0.3662109375,0.06103515625,10.332114257812501,-0.5316943359375,0.488583984375
1122,-0.6103515625,-0.30517578125,0.18310546875,10.3416943359375,-0.5604345703125,0.5077441406250001
1123,-0.54931640625,-0.30517578125,0.06103515625,10.308164062500001,-0.5269042968750001,0.488583984375
1124,-0.48828125,-0.30517578125,0.1220703125,10.308164062500001,-0.5269042968750001,0.488583984375
1125,-0.54931640625,-0.30517578125,0.06103515625,10.336904296875,-0.5316943359375,0.4981640625
1126,-0.48828125,-0.3662109375,0.0,10.3225341796875,-0.5508544921875,0.5316943359375
1127,-0.6103515625,-0.3662109375,0.0,10.3129541015625,-0.5508544921875,0.5269042968750001
1128,-0.67138671875,-0.3662109375,0.06103515625,10.336904296875,-0.5460644531250001,0.5029541015625
1129,-0.48828125,-0.30517578125,0.06103515625,10.298583984375,-0.5508544921875,0.5269042968750001
1130,-0.54931640625,-0.3662109375,0.0,10.298583984375,-0.5460644531250001,0.5316943359375
1131,-0.6103515625,-0.3662109375,0.06103515625,10.32732421875,-0.536484375,0.4981640625
1132,-0.54931640625,-0.42724609375,0.06103515625,10.317744140625,-0.536484375,0.48379394531250003
1133,-0.6103515625,-0.42724609375,0.06103515625,10.332114257812501,-0.5652246093750001,0.4981640625
1134,-0.54931640625,-0.42724609375,0.1220703125,10.3129541015625,-0.5460644531250001,0.536484375
1135,-0.54931640625,-0.30517578125,0.0,10.298583984375,-0.5412744140625,0.5125341796875
1136,-0.6103515625,-0.3662109375,0.06103515625,10.3225341796875,-0.5508544921875,0.4981640625
1137,-0.67138671875,-0.42724609375,0.06103515625,10.3033740234375,-0.5508544921875,0.5077441406250001
1138,-0.54931640625,-0.3662109375,0.1220703125,10.293793945312501,-0.5460644531250001,0.5029541015625
1139,-0.42724609375,-0.30517578125,0.1220703125,10.317744140625,-0.5269042968750001,0.5125341796875
1140,-0.6103515625,-0.3662109375,0.1220703125,10.317744140625,-0.5508544921875,0.5029541015625
1141,-0.6103515625,-0.3662109375,0.06103515625,10.308164062500001,-0.5460644531250001,0.5029541015625
1142,-0.54931640625,-0.3662109375,0.06103515625,10.317744140625,-0.536484375,0.4981640625
1143,-0.54931640625,-0.42724609375,0.06103515625,10.32732421875,-0.5412744140625,0.5077441406250001
1144,-0.6103515625,-0.42724609375,0.06103515625,10.336904296875,-0.5221142578125,0.536484375
1145,-0.6103515625,-0.3662109375,-0.06103515625,10.3129541015625,-0.5412744140625,0.488583984375
1146,-0.6103515625,-0.42724609375,0.06103515625,10.3033740234375,-0.5508544921875,0.488583984375
1147,-0.54931640625,-0.42724609375,0.06103515625,10.3129541015625,-0.5412744140625,0.5029541015625
1148,-0.67138671875,-0.3662109375,0.06103515625,10.308164062500001,-0.55564453125,0.49337402343750003
1149,-0.6103515625,-0.3662109375,0.06103515625,10.317744140625,-0.5269042968750001,0.5412744140625
1150,-0.48828125,-0.42724609375,0.0,10.3129541015625,-0.5508544921875,0.5508544921875
1151,-0.732421875,-0.42724609375,0.06103515625,10.3129541015625,-0.5508544921875,0.5029541015625
1152,-0.67138671875,-0.42724609375,0.0,10.317744140625,-0.5508544921875,0.488583984375
1153,-0.6103515625,-0.42724609375,0.0,10.32732421875,-0.5412744140625,0.51732421875
1154,-0.6103515625,-0.3662109375,0.06103515625,10.308164062500001,-0.5316943359375,0.51732421875
1155,-0.6103515625,-0.3662109375,0.0,10.32732421875,-0.5508544921875,0.5077441406250001
1156,-0.6103515625,-0.30517578125,0.0,10.32732421875,-0.5700146484375,0.4981640625
1157,-0.6103515625,-0.3662109375,0.06103515625,10.332114257812501,-0.5460644531250001,0.5029541015625
1158,-0.54931640625,-0.30517578125,0.1220703125,10.332114257812501,-0.5412744140625,0.5221142578125
1159,-0.48828125,-0.30517578125,0.0,10.317744140625,-0.5412744140625,0.51732421875
1160,-0.54931640625,-0.3662109375,0.0,10.3225341796875,-0.5316943359375,0.4981640625
1161,-0.67138671875,-0.42724609375,0.06103515625,10.3225341796875,-0.5412744140625,0.5221142578125
1162,-0.6103515625,-0.3662109375,0.0,10.308164062500001,-0.5316943359375,0.51732421875
1163,-0.54931640625,-0.3662109375,0.1220703125,10.308164062500001,-0.5652246093750001,0.5125341796875
1164,-0.6103515625,-0.3662109375,0.06103515625,10.317744140625,-0.5460644531250001,0.51732421875
1165,-0.54931640625,-0.3662109375,0.0,10.332114257812501,-0.55564453125,0.536484375
1166,-0.6103515625,-0.42724609375,0.0,10.32732421875,-0.5460644531250001,0.5412744140625
1167,-0.54931640625,-0.3662109375,0.06103515625,10.317744140625,-0.5604345703125,0.51732421875
1168,-0.6103515625,-0.3662109375,0.0,10.279423828125001,-0.5652246093750001,0.5125341796875
1169,-0.54931640625,-0.3662109375,0.1220703125,10.293793945312501,-0.5460644531250001,0.49337402343750003
1170,-0.54931640625,-0.30517578125,0.06103515625,10.332114257812501,-0.55564453125,0.5269042968750001
1171,-0.732421875,-0.3662109375,0.0,10.3033740234375,-0.5460644531250001,0.49337402343750003
1172,-0.67138671875,-0.3662109375,0.06103515625,10.3033740234375,-0.5508544921875,0.5269042968750001
1173,-0.54931640625,-0.3662109375,0.1220703125,10.3033740234375,-0.5652246093750001,0.5125341796875
1174,-0.6103515625,-0.3662109375,0.1220703125,10.332114257812501,-0.5460644531250001,0.51732421875
1175,-0.54931640625,-0.3662109375,0.06103515625,10.308164062500001,-0.5460644531250001,0.488583984375
1176,-0.6103515625,-0.3662109375,0.1220703125,10.298583984375,-0.5412744140625,0.51732421875
1177,-0.6103515625,-0.3662109375,0.06103515625,10.317744140625,-0.5316943359375,0.47900390625
1178,-0.6103515625,-0.3662109375,0.0,10.32732421875,-0.536484375,0.48379394531250003
1179,-0.6103515625,-0.3662109375,0.06103515625,10.3225341796875,-0.536484375,0.5221142578125
1180,-0.54931640625,-0.3662109375,0.06103515625,10.317744140625,-0.5508544921875,0.51732421875
1181,-0.732421875,-0.30517578125,0.0,10.3033740234375,-0.5412744140625,0.5269042968750001
1182,-0.54931640625,-0.3662109375,0.06103515625,10.317744140625,-0.5604345703125,0.4981640625
1183,-0.54931640625,-0.3662109375,0.1220703125,10.317744140625,-0.5460644531250001,0.5221142578125
1184,-0.67138671875,-0.30517578125,0.06103515625,10.32732421875,-0.536484375,0.5221142578125
1185,-0.54931640625,-0.42724609375,0.06103515625,10.3129541015625,-0.536484375,0.5269042968750001
1186,-0.54931640625,-0.42724609375,0.06103515625,10.308164062500001,-0.5508544921875,0.5029541015625
1187,-0.54931640625,-0.30517578125,0.06103515625,10.3129541015625,-0.5604345703125,0.48379394531250003
1188,-0.6103515625,-0.3662109375,0.1220703125,10.308164062500001,-0.5604345703125,0.4742138671875
1189,-0.54931640625,-0.3662109375,0.1220703125,10.28900390625,-0.5508544921875,0.5029541015625
1190,-0.48828125,-0.3662109375,0.06103515625,10.298583984375,-0.55564453125,0.5460644531250001
1191,-0.54931640625,-0.3662109375,0.1220703125,10.3129541015625,-0.5508544921875,0.49337402343750003
1192,-0.54931640625,-0.30517578125,0.1220703125,10.308164062500001,-0.5460644531250001,0.4981640625
1193,-0.6103515625,-0.42724609375,0.06103515625,10.3033740234375,-0.536484375,0.4981640625
1194,-0.67138671875,-0.3662109375,0.06103515625,10.3129541015625,-0.5460644531250001,0.5077441406250001
1195,-0.6103515625,-0.42724609375,0.0,10.3129541015625,-0.536484375,0.5269042968750001
1196,-0.6103515625,-0.42724609375,0.0,10.3225341796875,-0.55564453125,0.5221142578125
1197,-0.6103515625,-0.3662109375,0.06103515625,10.317744140625,-0.55564453125,0.5029541015625
1198,-0.6103515625,-0.3662109375,0.06103515625,10.3225341796875,-0.536484375,0.49337402343750003
1199,-0.54931640625,-0.30517578125,0.1220703125,10.32732421875,-0.5412744140625,0.49337402343750003
1200,-0.67138671875,-0.3662109375,0.0,10.293793945312501,-0.55564453125,0.5269042968750001
1201,-0.6103515625,-0.42724609375,0.0,10.293793945312501,-0.5460644531250001,0.51732421875
1202,-0.54931640625,-0.42724609375,0.06103515625,10.308164062500001,-0.5316943359375,0.48379394531250003
1203,-0.67138671875,-0.42724609375,0.06103515625,10.3033740234375,-0.5316943359375,0.5029541015625
1204,-0.732421875,-0.42724609375,0.06103515625,10.346484375000001,-0.5412744140625,0.5077441406250001
1205,-0.732421875,-0.42724609375,0.1220703125,10.3225341796875,-0.5508544921875,0.4981640625
1206,-0.6103515625,-0.42724609375,0.06103515625,10.336904296875,-0.5460644531250001,0.5029541015625
1207,-0.67138671875,-0.3662109375,0.06103515625,10.332114257812501,-0.55564453125,0.51732421875
1208,-0.6103515625,-0.42724609375,0.06103515625,10.298583984375,-0.55564453125,0.5221142578125
1209,-0.48828125,-0.3662109375,0.06103515625,10.3225341796875,-0.5700146484375,0.51732421875
1210,-0.54931640625,-0.3662109375,0.06103515625,10.317744140625,-0.5460644531250001,0.5077441406250001
1211,-0.67138671875,-0.3662109375,0.06103515625,10.3033740234375,-0.5412744140625,0.48379394531250003
1212,-0.54931640625,-0.3662109375,0.0,10.332114257812501,-0.5412744140625,0.5125341796875
1213,-0.42724609375,-0.42724609375,0.06103515625,10.317744140625,-0.5460644531250001,0.4981640625
1214,-0.54931640625,-0.30517578125,0.06103515625,10.332114257812501,-0.5508544921875,0.49337402343750003
1215,-0.54931640625,-0.42724609375,0.06103515625,10.3225341796875,-0.536484375,0.48379394531250003
1216,-0.6103515625,-0.42724609375,0.1220703125,10.3512744140625,-0.5412744140625,0.5125341796875
1217,-0.6103515625,-0.244140625,0.0,10.336904296875,-0.5316943359375,0.5125341796875
1218,-0.54931640625,-0.3662109375,0.0,10.298583984375,-0.5269042968750001,0.5029541015625
1219,-0.54931640625,-0.3662109375,0.0,10.293793945312501,-0.536484375,0.47900390625
1220,-0.67138671875,-0.3662109375,0.1220703125,10.3033740234375,-0.5508544921875,0.5077441406250001
1221,-0.54931640625,-0.48828125,0.1220703125,10.32732421875,-0.5508544921875,0.5221142578125
1222,-0.54931640625,-0.42724609375,0.1220703125,10.336904296875,-0.5460644531250001,0.5029541015625
1223,-0.6103515625,-0.42724609375,0.1220703125,10.32732421875,-0.5748046875,0.5077441406250001
1224,-0.67138671875,-0.3662109375,0.06103515625,10.3129541015625,-0.5508544921875,0.4981640625
1225,-0.6103515625,-0.30517578125,0.0,10.317744140625,-0.5508544921875,0.49337402343750003
1226,-0.732421875,-0.3662109375,0.06103515625,10.308164062500001,-0.5700146484375,0.5412744140625
1227,-0.67138671875,-0.3662109375,0.06103515625,10.293793945312501,-0.5269042968750001,0.5221142578125
1228,-0.6103515625,-0.30517578125,0.1220703125,10.336904296875,-0.5269042968750001,0.5125341796875
1229,-0.54931640625,-0.42724609375,0.1220703125,10.3033740234375,-0.536484375,0.5125341796875
1230,-0.54931640625,-0.3662109375,0.06103515625,10.317744140625,-0.5460644531250001,0.5029541015625
1231,-0.67138671875,-0.3662109375,0.06103515625,10.308164062500001,-0.5460644531250001,0.51732421875
1232,-0.732421875,-0.42724609375,0.06103515625,10.332114257812501,-0.5316943359375,0.51732421875
1233,-0.67138671875,-0.42724609375,0.0,10.3129541015625,-0.5604345703125,0.4981640625
1234,-0.6103515625,-0.30517578125,0.06103515625,10.3033740234375,-0.5460644531250001,0.4742138671875
1235,-0.54931640625,-0.3662109375,0.1220703125,10.293793945312501,-0.5316943359375,0.5269042968750001
1236,-0.6103515625,-0.42724609375,0.06103515625,10.3129541015625,-0.5460644531250001,0.4742138671875
1237,-0.6103515625,-0.30517578125,0.06103515625,10.32732421875,-0.5748046875,0.48379394531250003
1238,-0.54931640625,-0.3662109375,0.1220703125,10.32732421875,-0.5508544921875,0.49337402343750003
1239,-0.6103515625,-0.42724609375,0.1220703125,10.298583984375,-0.5316943359375,0.4981640625
1240,-0.6103515625,-0.30517578125,0.06103515625,10.298583984375,-0.5508544921875,0.49337402343750003
1241,-0.6103515625,-0.42724609375,0.0,10.308164062500001,-0.5508544921875,0.536484375
1242,-0.54931640625,-0.30517578125,0.06103515625,10.3416943359375,-0.5604345703125,0.5316943359375
1243,-0.67138671875,-0.30517578125,0.1220703125,10.3416943359375,-0.5604345703125,0.5269042968750001
1244,-0.67138671875,-0.3662109375,0.18310546875,10.32732421875,-0.5652246093750001,0.5029541015625
1245,-0.54931640625,-0.3662109375,0.06103515625,10.317744140625,-0.5508544921875,0.4981640625
1246,-0.54931640625,-0.3662109375,0.06103515625,10.308164062500001,-0.5412744140625,0.51732421875
1247,-0.67138671875,-0.42724609375,0.18310546875,10.336904296875,-0.5508544921875,0.4981640625
1248,-0.67138671875,-0.42724609375,0.06103515625,10.3225341796875,-0.5508544921875,0.5029541015625
1249,-0.54931640625,-0.42724609375,0.06103515625,10.317744140625,-0.5460644531250001,0.4981640625
1250,-0.6103515625,-0.48828125,0.06103515625,10.308164062500001,-0.5316943359375,0.51732421875
1251,-0.54931640625,-0.42724609375,0.06103515625,10.317744140625,-0.5412744140625,0.5077441406250001
1252,-0.6103515625,-0.3662109375,0.0,10.32732421875,-0.5269042968750001,0.49337402343750003
1253,-0.48828125,-0.3662109375,0.0,10.336904296875,-0.5221142578125,0.5221142578125
1254,-0.48828125,-0.3662109375,0.0,10.308164062500001,-0.5412744140625,0.5269042968750001
1255,-0.54931640625,-0.3662109375,0.0,10.308164062500001,-0.5460644531250001,0.488583984375
1256,-0.67138671875,-0.30517578125,0.06103515625,10.3033740234375,-0.5460644531250001,0.488583984375
1257,-0.6103515625,-0.3662109375,0.0,10.3033740234375,-0.5748046875,0.5125341796875
1258,-0.48828125,-0.3662109375,0.06103515625,10.332114257812501,-0.5508544921875,0.5029541015625
1259,-0.6103515625,-0.3662109375,0.1220703125,10.32732421875,-0.55564453125,0.5316943359375
1260,-0.67138671875,-0.3662109375,0.06103515625,10.2746337890625,-0.5652246093750001,0.5316943359375
1261,-0.54931640625,-0.3662109375,0.0,10.308164062500001,-0.5604345703125,0.49337402343750003
1262,-0.54931640625,-0.3662109375,0.0,10.32732421875,-0.55564453125,0.49337402343750003
1263,-0.6103515625,-0.42724609375,0.0,10.3129541015625,-0.536484375,0.5221142578125
1264,-0.54931640625,-0.3662109375,0.06103515625,10.332114257812501,-0.5269042968750001,0.5029541015625
1265,-0.54931640625,-0.3662109375,0.06103515625,10.308164062500001,-0.5269042968750001,0.469423828125
1266,-0.6103515625,-0.3662109375,0.06103515625,10.3225341796875,-0.5269042968750001,0.5077441406250001
1267,-0.67138671875,-0.3662109375,0.06103515625,10.332114257812501,-0.5460644531250001,0.5269042968750001
